submission_id,rules,blocked,trial,block,image,correct,response_time
15,0,1,1,1,images/e09_1917-233.3.jpg,TRUE,4323
15,0,1,2,1,images/e07_1500-900.jpg,FALSE,3832
15,0,1,3,1,images/e13_1917-766.7.jpg,FALSE,4064
15,0,1,4,1,images/e01_1500-100.jpg,FALSE,3156
15,0,1,5,1,images/e13_1917-766.7.jpg,FALSE,3708
15,0,1,6,1,images/e09_1917-233.3.jpg,TRUE,3749
15,0,1,7,1,images/e01_1500-100.jpg,TRUE,3134
15,0,1,8,1,images/e07_1500-900.jpg,TRUE,2182
15,0,1,9,2,images/e13_1917-766.7.jpg,TRUE,2090
15,0,1,10,2,images/e07_1500-900.jpg,TRUE,2010
15,0,1,11,2,images/e01_1500-100.jpg,TRUE,1803
15,0,1,12,2,images/e09_1917-233.3.jpg,TRUE,1857
15,0,1,13,2,images/e01_1500-100.jpg,TRUE,1903
15,0,1,14,2,images/e09_1917-233.3.jpg,TRUE,1853
15,0,1,15,2,images/e07_1500-900.jpg,TRUE,1850
15,0,1,16,2,images/e13_1917-766.7.jpg,TRUE,2638
15,0,1,17,3,images/e01_1500-100.jpg,TRUE,1993
15,0,1,18,3,images/e49_4000-900.jpg,FALSE,5399
15,0,1,19,3,images/e41_3583-766.7.jpg,TRUE,2218
15,0,1,20,3,images/e13_1917-766.7.jpg,TRUE,3781
15,0,1,21,3,images/e07_1500-900.jpg,TRUE,2074
15,0,1,22,3,images/e07_1500-900.jpg,TRUE,2713
15,0,1,23,3,images/e13_1917-766.7.jpg,TRUE,2226
15,0,1,24,3,images/e09_1917-233.3.jpg,TRUE,2233
15,0,1,25,4,images/e07_1500-900.jpg,TRUE,2106
15,0,1,26,4,images/e01_1500-100.jpg,TRUE,1919
15,0,1,27,4,images/e13_1917-766.7.jpg,TRUE,2022
15,0,1,28,4,images/e09_1917-233.3.jpg,TRUE,2194
15,0,1,29,4,images/e49_4000-900.jpg,TRUE,2037
15,0,1,30,4,images/e13_1917-766.7.jpg,TRUE,1980
15,0,1,31,4,images/e07_1500-900.jpg,TRUE,2027
15,0,1,32,4,images/e41_3583-766.7.jpg,TRUE,1995
15,0,1,33,5,images/e13_1917-766.7.jpg,TRUE,2072
15,0,1,34,5,images/e07_1500-900.jpg,TRUE,1993
15,0,1,35,5,images/e09_1917-233.3.jpg,TRUE,1953
15,0,1,36,5,images/e49_4000-900.jpg,TRUE,2461
15,0,1,37,5,images/e41_3583-766.7.jpg,TRUE,1925
15,0,1,38,5,images/e01_1500-100.jpg,TRUE,2027
15,0,1,39,5,images/e13_1917-766.7.jpg,TRUE,1754
15,0,1,40,5,images/e07_1500-900.jpg,TRUE,2745
15,0,1,41,6,images/e13_1917-766.7.jpg,TRUE,1908
15,0,1,42,6,images/e13_1917-766.7.jpg,TRUE,1800
15,0,1,43,6,images/e01_1500-100.jpg,TRUE,1907
15,0,1,44,6,images/e49_4000-900.jpg,TRUE,1882
15,0,1,45,6,images/e07_1500-900.jpg,TRUE,2452
15,0,1,46,6,images/e09_1917-233.3.jpg,TRUE,1854
15,0,1,47,6,images/e41_3583-766.7.jpg,TRUE,2618
15,0,1,48,6,images/e07_1500-900.jpg,TRUE,1989
15,0,1,49,7,images/e41_3583-766.7.jpg,TRUE,2072
15,0,1,50,7,images/e13_1917-766.7.jpg,TRUE,1762
15,0,1,51,7,images/e07_1500-900.jpg,TRUE,1810
15,0,1,52,7,images/e07_1500-900.jpg,TRUE,1825
15,0,1,53,7,images/e01_1500-100.jpg,TRUE,1867
15,0,1,54,7,images/e13_1917-766.7.jpg,TRUE,1829
15,0,1,55,7,images/e49_4000-900.jpg,TRUE,1839
15,0,1,56,7,images/e09_1917-233.3.jpg,TRUE,1944
15,0,1,57,8,images/e01_1500-100.jpg,TRUE,2175
15,0,1,58,8,images/e49_4000-900.jpg,TRUE,2179
15,0,1,59,8,images/e07_1500-900.jpg,TRUE,2011
15,0,1,60,8,images/e41_3583-766.7.jpg,TRUE,2425
15,0,1,61,8,images/e07_1500-900.jpg,TRUE,1763
15,0,1,62,8,images/e13_1917-766.7.jpg,TRUE,2532
15,0,1,63,8,images/e13_1917-766.7.jpg,TRUE,2239
15,0,1,64,8,images/e09_1917-233.3.jpg,TRUE,1794
15,0,1,65,9,images/e49_4000-900.jpg,TRUE,2053
15,0,1,66,9,images/e13_1917-766.7.jpg,TRUE,1796
15,0,1,67,9,images/e09_1917-233.3.jpg,TRUE,1818
15,0,1,68,9,images/e13_1917-766.7.jpg,TRUE,2294
15,0,1,69,9,images/e01_1500-100.jpg,TRUE,1938
15,0,1,70,9,images/e07_1500-900.jpg,TRUE,1837
15,0,1,71,9,images/e07_1500-900.jpg,TRUE,1879
15,0,1,72,9,images/e41_3583-766.7.jpg,TRUE,1811
15,0,1,73,10,images/e13_1917-766.7.jpg,TRUE,1763
15,0,1,74,10,images/e09_1917-233.3.jpg,TRUE,2678
15,0,1,75,10,images/e49_4000-900.jpg,TRUE,1790
15,0,1,76,10,images/e07_1500-900.jpg,TRUE,1707
15,0,1,77,10,images/e13_1917-766.7.jpg,TRUE,1588
15,0,1,78,10,images/e07_1500-900.jpg,TRUE,1649
15,0,1,79,10,images/e01_1500-100.jpg,TRUE,1846
15,0,1,80,10,images/e41_3583-766.7.jpg,TRUE,2115
15,0,1,81,11,images/e09_1917-233.3.jpg,TRUE,3178
15,0,1,82,11,images/e13_1917-766.7.jpg,TRUE,1908
15,0,1,83,11,images/e07_1500-900.jpg,TRUE,4615
15,0,1,84,11,images/e01_1500-100.jpg,TRUE,16560
15,0,1,85,11,images/e13_1917-766.7.jpg,TRUE,2912
15,0,1,86,11,images/e07_1500-900.jpg,TRUE,1702
15,0,1,87,11,images/e41_3583-766.7.jpg,TRUE,1715
15,0,1,88,11,images/e49_4000-900.jpg,TRUE,1846
15,0,1,89,12,images/e09_1917-233.3.jpg,TRUE,2357
15,0,1,90,12,images/e13_1917-766.7.jpg,TRUE,2039
15,0,1,91,12,images/e07_1500-900.jpg,TRUE,1577
15,0,1,92,12,images/e01_1500-100.jpg,TRUE,2462
15,0,1,93,12,images/e49_4000-900.jpg,TRUE,2027
15,0,1,94,12,images/e07_1500-900.jpg,TRUE,1790
15,0,1,95,12,images/e41_3583-766.7.jpg,TRUE,1725
15,0,1,96,12,images/e13_1917-766.7.jpg,TRUE,1631
16,0,0,1,1,images/e01_1500-100.jpg,FALSE,3416
16,0,0,2,1,images/e07_1500-900.jpg,TRUE,2959
16,0,0,3,1,images/e49_4000-900.jpg,FALSE,2368
16,0,0,4,1,images/e13_1917-766.7.jpg,TRUE,2576
16,0,0,5,1,images/e41_3583-766.7.jpg,TRUE,2064
16,0,0,6,1,images/e13_1917-766.7.jpg,FALSE,2559
16,0,0,7,1,images/e07_1500-900.jpg,TRUE,1697
16,0,0,8,1,images/e09_1917-233.3.jpg,TRUE,1736
16,0,0,9,2,images/e49_4000-900.jpg,TRUE,1952
16,0,0,10,2,images/e07_1500-900.jpg,TRUE,1616
16,0,0,11,2,images/e13_1917-766.7.jpg,FALSE,2184
16,0,0,12,2,images/e07_1500-900.jpg,TRUE,1872
16,0,0,13,2,images/e09_1917-233.3.jpg,TRUE,2008
16,0,0,14,2,images/e01_1500-100.jpg,FALSE,1720
16,0,0,15,2,images/e13_1917-766.7.jpg,TRUE,2344
16,0,0,16,2,images/e41_3583-766.7.jpg,TRUE,1824
16,0,0,17,3,images/e49_4000-900.jpg,TRUE,2304
16,0,0,18,3,images/e13_1917-766.7.jpg,TRUE,1928
16,0,0,19,3,images/e09_1917-233.3.jpg,TRUE,1927
16,0,0,20,3,images/e01_1500-100.jpg,TRUE,2249
16,0,0,21,3,images/e07_1500-900.jpg,TRUE,1721
16,0,0,22,3,images/e13_1917-766.7.jpg,TRUE,2175
16,0,0,23,3,images/e07_1500-900.jpg,TRUE,1753
16,0,0,24,3,images/e41_3583-766.7.jpg,TRUE,1935
16,0,0,25,4,images/e41_3583-766.7.jpg,TRUE,1496
16,0,0,26,4,images/e13_1917-766.7.jpg,TRUE,1567
16,0,0,27,4,images/e01_1500-100.jpg,TRUE,1880
16,0,0,28,4,images/e49_4000-900.jpg,TRUE,1591
16,0,0,29,4,images/e13_1917-766.7.jpg,TRUE,1496
16,0,0,30,4,images/e09_1917-233.3.jpg,TRUE,1744
16,0,0,31,4,images/e07_1500-900.jpg,TRUE,1488
16,0,0,32,4,images/e07_1500-900.jpg,TRUE,1232
16,0,0,33,5,images/e13_1917-766.7.jpg,TRUE,1455
16,0,0,34,5,images/e49_4000-900.jpg,TRUE,1168
16,0,0,35,5,images/e07_1500-900.jpg,TRUE,1280
16,0,0,36,5,images/e13_1917-766.7.jpg,TRUE,1176
16,0,0,37,5,images/e41_3583-766.7.jpg,TRUE,1464
16,0,0,38,5,images/e09_1917-233.3.jpg,TRUE,2376
16,0,0,39,5,images/e01_1500-100.jpg,TRUE,1032
16,0,0,40,5,images/e07_1500-900.jpg,TRUE,1321
16,0,0,41,6,images/e41_3583-766.7.jpg,TRUE,1295
16,0,0,42,6,images/e07_1500-900.jpg,FALSE,2128
16,0,0,43,6,images/e09_1917-233.3.jpg,TRUE,1576
16,0,0,44,6,images/e49_4000-900.jpg,TRUE,1408
16,0,0,45,6,images/e07_1500-900.jpg,TRUE,2240
16,0,0,46,6,images/e13_1917-766.7.jpg,TRUE,1472
16,0,0,47,6,images/e01_1500-100.jpg,TRUE,1336
16,0,0,48,6,images/e13_1917-766.7.jpg,TRUE,1208
16,0,0,49,7,images/e41_3583-766.7.jpg,TRUE,1272
16,0,0,50,7,images/e01_1500-100.jpg,FALSE,1464
16,0,0,51,7,images/e07_1500-900.jpg,TRUE,3176
16,0,0,52,7,images/e07_1500-900.jpg,TRUE,1200
16,0,0,53,7,images/e09_1917-233.3.jpg,TRUE,1424
16,0,0,54,7,images/e13_1917-766.7.jpg,TRUE,1464
16,0,0,55,7,images/e13_1917-766.7.jpg,TRUE,1448
16,0,0,56,7,images/e49_4000-900.jpg,TRUE,1168
16,0,0,57,8,images/e07_1500-900.jpg,FALSE,2343
16,0,0,58,8,images/e13_1917-766.7.jpg,TRUE,1672
16,0,0,59,8,images/e09_1917-233.3.jpg,TRUE,1472
16,0,0,60,8,images/e13_1917-766.7.jpg,TRUE,1424
16,0,0,61,8,images/e07_1500-900.jpg,TRUE,2272
16,0,0,62,8,images/e49_4000-900.jpg,TRUE,1256
16,0,0,63,8,images/e01_1500-100.jpg,TRUE,1848
16,0,0,64,8,images/e41_3583-766.7.jpg,FALSE,1679
16,0,0,65,9,images/e07_1500-900.jpg,TRUE,1680
16,0,0,66,9,images/e07_1500-900.jpg,TRUE,1304
16,0,0,67,9,images/e41_3583-766.7.jpg,TRUE,1584
16,0,0,68,9,images/e09_1917-233.3.jpg,TRUE,2503
16,0,0,69,9,images/e01_1500-100.jpg,TRUE,1888
16,0,0,70,9,images/e13_1917-766.7.jpg,FALSE,1551
16,0,0,71,9,images/e49_4000-900.jpg,TRUE,1328
16,0,0,72,9,images/e13_1917-766.7.jpg,TRUE,1870
16,0,0,73,10,images/e13_1917-766.7.jpg,TRUE,1088
16,0,0,74,10,images/e49_4000-900.jpg,TRUE,1472
16,0,0,75,10,images/e01_1500-100.jpg,FALSE,1720
16,0,0,76,10,images/e09_1917-233.3.jpg,TRUE,1535
16,0,0,77,10,images/e07_1500-900.jpg,TRUE,1968
16,0,0,78,10,images/e07_1500-900.jpg,TRUE,1247
16,0,0,79,10,images/e41_3583-766.7.jpg,TRUE,1904
16,0,0,80,10,images/e13_1917-766.7.jpg,TRUE,1720
16,0,0,81,11,images/e01_1500-100.jpg,TRUE,1759
16,0,0,82,11,images/e09_1917-233.3.jpg,TRUE,1736
16,0,0,83,11,images/e13_1917-766.7.jpg,TRUE,1392
16,0,0,84,11,images/e07_1500-900.jpg,TRUE,1392
16,0,0,85,11,images/e41_3583-766.7.jpg,TRUE,1744
16,0,0,86,11,images/e49_4000-900.jpg,TRUE,1512
16,0,0,87,11,images/e07_1500-900.jpg,TRUE,1576
16,0,0,88,11,images/e13_1917-766.7.jpg,TRUE,1369
16,0,0,89,12,images/e49_4000-900.jpg,TRUE,1328
16,0,0,90,12,images/e01_1500-100.jpg,TRUE,3591
16,0,0,91,12,images/e09_1917-233.3.jpg,TRUE,1368
16,0,0,92,12,images/e41_3583-766.7.jpg,FALSE,1968
16,0,0,93,12,images/e07_1500-900.jpg,TRUE,1472
16,0,0,94,12,images/e13_1917-766.7.jpg,TRUE,1312
16,0,0,95,12,images/e13_1917-766.7.jpg,TRUE,1256
16,0,0,96,12,images/e07_1500-900.jpg,TRUE,1295
17,1,0,1,1,images/e13_1917-766.7.jpg,TRUE,3300
17,1,0,2,1,images/e41_3583-766.7.jpg,FALSE,3667
17,1,0,3,1,images/e01_1500-100.jpg,FALSE,6467
17,1,0,4,1,images/e49_4000-900.jpg,TRUE,2816
17,1,0,5,1,images/e13_1917-766.7.jpg,TRUE,2166
17,1,0,6,1,images/e07_1500-900.jpg,TRUE,3166
17,1,0,7,1,images/e09_1917-233.3.jpg,TRUE,2133
17,1,0,8,1,images/e07_1500-900.jpg,TRUE,2216
17,1,0,9,2,images/e07_1500-900.jpg,TRUE,2684
17,1,0,10,2,images/e49_4000-900.jpg,TRUE,1966
17,1,0,11,2,images/e07_1500-900.jpg,TRUE,2100
17,1,0,12,2,images/e01_1500-100.jpg,TRUE,1932
17,1,0,13,2,images/e13_1917-766.7.jpg,TRUE,1834
17,1,0,14,2,images/e13_1917-766.7.jpg,TRUE,1833
17,1,0,15,2,images/e41_3583-766.7.jpg,TRUE,1734
17,1,0,16,2,images/e09_1917-233.3.jpg,TRUE,1821
17,1,0,17,3,images/e49_4000-900.jpg,TRUE,1828
17,1,0,18,3,images/e01_1500-100.jpg,TRUE,1999
17,1,0,19,3,images/e13_1917-766.7.jpg,TRUE,1933
17,1,0,20,3,images/e07_1500-900.jpg,TRUE,1566
17,1,0,21,3,images/e41_3583-766.7.jpg,TRUE,1734
17,1,0,22,3,images/e13_1917-766.7.jpg,TRUE,2150
17,1,0,23,3,images/e09_1917-233.3.jpg,TRUE,1817
17,1,0,24,3,images/e07_1500-900.jpg,TRUE,1849
17,1,0,25,4,images/e09_1917-233.3.jpg,TRUE,1733
17,1,0,26,4,images/e07_1500-900.jpg,TRUE,1866
17,1,0,27,4,images/e13_1917-766.7.jpg,TRUE,2016
17,1,0,28,4,images/e13_1917-766.7.jpg,TRUE,2367
17,1,0,29,4,images/e01_1500-100.jpg,TRUE,2000
17,1,0,30,4,images/e49_4000-900.jpg,TRUE,1966
17,1,0,31,4,images/e41_3583-766.7.jpg,FALSE,2066
17,1,0,32,4,images/e07_1500-900.jpg,TRUE,1984
17,1,0,33,5,images/e09_1917-233.3.jpg,TRUE,1867
17,1,0,34,5,images/e07_1500-900.jpg,TRUE,2666
17,1,0,35,5,images/e01_1500-100.jpg,TRUE,1566
17,1,0,36,5,images/e07_1500-900.jpg,TRUE,1800
17,1,0,37,5,images/e13_1917-766.7.jpg,TRUE,3032
17,1,0,38,5,images/e41_3583-766.7.jpg,TRUE,1833
17,1,0,39,5,images/e13_1917-766.7.jpg,TRUE,1750
17,1,0,40,5,images/e49_4000-900.jpg,TRUE,1601
17,1,0,41,6,images/e49_4000-900.jpg,TRUE,1651
17,1,0,42,6,images/e07_1500-900.jpg,TRUE,1733
17,1,0,43,6,images/e41_3583-766.7.jpg,TRUE,2082
17,1,0,44,6,images/e13_1917-766.7.jpg,TRUE,1568
17,1,0,45,6,images/e13_1917-766.7.jpg,TRUE,2834
17,1,0,46,6,images/e09_1917-233.3.jpg,TRUE,1664
17,1,0,47,6,images/e07_1500-900.jpg,TRUE,1800
17,1,0,48,6,images/e01_1500-100.jpg,TRUE,1783
17,1,0,49,7,images/e13_1917-766.7.jpg,TRUE,2249
17,1,0,50,7,images/e49_4000-900.jpg,TRUE,1567
17,1,0,51,7,images/e07_1500-900.jpg,TRUE,1932
17,1,0,52,7,images/e41_3583-766.7.jpg,TRUE,1631
17,1,0,53,7,images/e01_1500-100.jpg,TRUE,2416
17,1,0,54,7,images/e13_1917-766.7.jpg,TRUE,2283
17,1,0,55,7,images/e09_1917-233.3.jpg,TRUE,1684
17,1,0,56,7,images/e07_1500-900.jpg,TRUE,1716
17,1,0,57,8,images/e13_1917-766.7.jpg,TRUE,1766
17,1,0,58,8,images/e49_4000-900.jpg,TRUE,1735
17,1,0,59,8,images/e13_1917-766.7.jpg,TRUE,1899
17,1,0,60,8,images/e41_3583-766.7.jpg,TRUE,1716
17,1,0,61,8,images/e09_1917-233.3.jpg,TRUE,1784
17,1,0,62,8,images/e01_1500-100.jpg,TRUE,1634
17,1,0,63,8,images/e07_1500-900.jpg,TRUE,1666
17,1,0,64,8,images/e07_1500-900.jpg,TRUE,1801
17,1,0,65,9,images/e49_4000-900.jpg,TRUE,1583
17,1,0,66,9,images/e41_3583-766.7.jpg,TRUE,1983
17,1,0,67,9,images/e07_1500-900.jpg,TRUE,1683
17,1,0,68,9,images/e07_1500-900.jpg,TRUE,1883
17,1,0,69,9,images/e09_1917-233.3.jpg,TRUE,1650
17,1,0,70,9,images/e13_1917-766.7.jpg,TRUE,1850
17,1,0,71,9,images/e13_1917-766.7.jpg,TRUE,1549
17,1,0,72,9,images/e01_1500-100.jpg,TRUE,2116
17,1,0,73,10,images/e09_1917-233.3.jpg,TRUE,1965
17,1,0,74,10,images/e07_1500-900.jpg,TRUE,1866
17,1,0,75,10,images/e01_1500-100.jpg,TRUE,1816
17,1,0,76,10,images/e07_1500-900.jpg,TRUE,1750
17,1,0,77,10,images/e13_1917-766.7.jpg,TRUE,1883
17,1,0,78,10,images/e49_4000-900.jpg,TRUE,1716
17,1,0,79,10,images/e13_1917-766.7.jpg,TRUE,1933
17,1,0,80,10,images/e41_3583-766.7.jpg,TRUE,1816
17,1,0,81,11,images/e13_1917-766.7.jpg,TRUE,1849
17,1,0,82,11,images/e49_4000-900.jpg,TRUE,1600
17,1,0,83,11,images/e13_1917-766.7.jpg,TRUE,1783
17,1,0,84,11,images/e07_1500-900.jpg,TRUE,2450
17,1,0,85,11,images/e01_1500-100.jpg,TRUE,1700
17,1,0,86,11,images/e07_1500-900.jpg,TRUE,1866
17,1,0,87,11,images/e09_1917-233.3.jpg,TRUE,2483
17,1,0,88,11,images/e41_3583-766.7.jpg,TRUE,2283
17,1,0,89,12,images/e09_1917-233.3.jpg,TRUE,1800
17,1,0,90,12,images/e07_1500-900.jpg,TRUE,2000
17,1,0,91,12,images/e01_1500-100.jpg,TRUE,2700
17,1,0,92,12,images/e49_4000-900.jpg,TRUE,2583
17,1,0,93,12,images/e07_1500-900.jpg,TRUE,2017
17,1,0,94,12,images/e41_3583-766.7.jpg,TRUE,2065
17,1,0,95,12,images/e13_1917-766.7.jpg,TRUE,1784
17,1,0,96,12,images/e13_1917-766.7.jpg,TRUE,1749
18,1,1,1,1,images/e13_1917-766.7.jpg,FALSE,4554
18,1,1,2,1,images/e41_3583-766.7.jpg,FALSE,4605
18,1,1,3,1,images/e49_4000-900.jpg,FALSE,5098
18,1,1,4,1,images/e07_1500-900.jpg,TRUE,3564
18,1,1,5,1,images/e07_1500-900.jpg,TRUE,2700
18,1,1,6,1,images/e13_1917-766.7.jpg,FALSE,2815
18,1,1,7,1,images/e49_4000-900.jpg,TRUE,2066
18,1,1,8,1,images/e41_3583-766.7.jpg,TRUE,1849
18,1,1,9,2,images/e13_1917-766.7.jpg,TRUE,1849
18,1,1,10,2,images/e07_1500-900.jpg,TRUE,2133
18,1,1,11,2,images/e49_4000-900.jpg,TRUE,1632
18,1,1,12,2,images/e41_3583-766.7.jpg,TRUE,3132
18,1,1,13,2,images/e49_4000-900.jpg,TRUE,2230
18,1,1,14,2,images/e07_1500-900.jpg,TRUE,1834
18,1,1,15,2,images/e13_1917-766.7.jpg,TRUE,1699
18,1,1,16,2,images/e41_3583-766.7.jpg,TRUE,1949
18,1,1,17,3,images/e07_1500-900.jpg,FALSE,2328
18,1,1,18,3,images/e09_1917-233.3.jpg,FALSE,5416
18,1,1,19,3,images/e13_1917-766.7.jpg,TRUE,2317
18,1,1,20,3,images/e07_1500-900.jpg,TRUE,2132
18,1,1,21,3,images/e41_3583-766.7.jpg,TRUE,1850
18,1,1,22,3,images/e01_1500-100.jpg,TRUE,1618
18,1,1,23,3,images/e13_1917-766.7.jpg,TRUE,2244
18,1,1,24,3,images/e49_4000-900.jpg,TRUE,1884
18,1,1,25,4,images/e41_3583-766.7.jpg,TRUE,1714
18,1,1,26,4,images/e07_1500-900.jpg,TRUE,1700
18,1,1,27,4,images/e49_4000-900.jpg,FALSE,2082
18,1,1,28,4,images/e01_1500-100.jpg,TRUE,3699
18,1,1,29,4,images/e13_1917-766.7.jpg,FALSE,2267
18,1,1,30,4,images/e07_1500-900.jpg,TRUE,2066
18,1,1,31,4,images/e09_1917-233.3.jpg,TRUE,2100
18,1,1,32,4,images/e13_1917-766.7.jpg,TRUE,2165
18,1,1,33,5,images/e07_1500-900.jpg,TRUE,1866
18,1,1,34,5,images/e13_1917-766.7.jpg,TRUE,1650
18,1,1,35,5,images/e41_3583-766.7.jpg,TRUE,1883
18,1,1,36,5,images/e01_1500-100.jpg,FALSE,2032
18,1,1,37,5,images/e09_1917-233.3.jpg,TRUE,2950
18,1,1,38,5,images/e07_1500-900.jpg,TRUE,2149
18,1,1,39,5,images/e13_1917-766.7.jpg,TRUE,1750
18,1,1,40,5,images/e49_4000-900.jpg,TRUE,4266
18,1,1,41,6,images/e13_1917-766.7.jpg,TRUE,1999
18,1,1,42,6,images/e41_3583-766.7.jpg,TRUE,1967
18,1,1,43,6,images/e13_1917-766.7.jpg,TRUE,1965
18,1,1,44,6,images/e07_1500-900.jpg,TRUE,2500
18,1,1,45,6,images/e07_1500-900.jpg,TRUE,2217
18,1,1,46,6,images/e09_1917-233.3.jpg,TRUE,1949
18,1,1,47,6,images/e01_1500-100.jpg,TRUE,1817
18,1,1,48,6,images/e49_4000-900.jpg,TRUE,1800
18,1,1,49,7,images/e07_1500-900.jpg,TRUE,1713
18,1,1,50,7,images/e07_1500-900.jpg,TRUE,1501
18,1,1,51,7,images/e09_1917-233.3.jpg,TRUE,2517
18,1,1,52,7,images/e49_4000-900.jpg,TRUE,2466
18,1,1,53,7,images/e01_1500-100.jpg,TRUE,2033
18,1,1,54,7,images/e13_1917-766.7.jpg,TRUE,1914
18,1,1,55,7,images/e13_1917-766.7.jpg,TRUE,1583
18,1,1,56,7,images/e41_3583-766.7.jpg,TRUE,2401
18,1,1,57,8,images/e01_1500-100.jpg,TRUE,2167
18,1,1,58,8,images/e49_4000-900.jpg,TRUE,1533
18,1,1,59,8,images/e41_3583-766.7.jpg,TRUE,1683
18,1,1,60,8,images/e07_1500-900.jpg,TRUE,1498
18,1,1,61,8,images/e09_1917-233.3.jpg,TRUE,1616
18,1,1,62,8,images/e13_1917-766.7.jpg,FALSE,2150
18,1,1,63,8,images/e07_1500-900.jpg,FALSE,1564
18,1,1,64,8,images/e13_1917-766.7.jpg,TRUE,1533
18,1,1,65,9,images/e01_1500-100.jpg,TRUE,1948
18,1,1,66,9,images/e13_1917-766.7.jpg,TRUE,1766
18,1,1,67,9,images/e07_1500-900.jpg,TRUE,1515
18,1,1,68,9,images/e49_4000-900.jpg,TRUE,1466
18,1,1,69,9,images/e09_1917-233.3.jpg,TRUE,1683
18,1,1,70,9,images/e13_1917-766.7.jpg,TRUE,2049
18,1,1,71,9,images/e41_3583-766.7.jpg,TRUE,1632
18,1,1,72,9,images/e07_1500-900.jpg,TRUE,1798
18,1,1,73,10,images/e41_3583-766.7.jpg,TRUE,1900
18,1,1,74,10,images/e13_1917-766.7.jpg,TRUE,1816
18,1,1,75,10,images/e07_1500-900.jpg,TRUE,1667
18,1,1,76,10,images/e13_1917-766.7.jpg,FALSE,2317
18,1,1,77,10,images/e01_1500-100.jpg,TRUE,1996
18,1,1,78,10,images/e49_4000-900.jpg,TRUE,2150
18,1,1,79,10,images/e07_1500-900.jpg,TRUE,1650
18,1,1,80,10,images/e09_1917-233.3.jpg,FALSE,1933
18,1,1,81,11,images/e49_4000-900.jpg,TRUE,3248
18,1,1,82,11,images/e41_3583-766.7.jpg,TRUE,1682
18,1,1,83,11,images/e13_1917-766.7.jpg,TRUE,2250
18,1,1,84,11,images/e13_1917-766.7.jpg,TRUE,1765
18,1,1,85,11,images/e07_1500-900.jpg,TRUE,1683
18,1,1,86,11,images/e07_1500-900.jpg,TRUE,1966
18,1,1,87,11,images/e09_1917-233.3.jpg,TRUE,1700
18,1,1,88,11,images/e01_1500-100.jpg,TRUE,1715
18,1,1,89,12,images/e41_3583-766.7.jpg,TRUE,2084
18,1,1,90,12,images/e01_1500-100.jpg,TRUE,2083
18,1,1,91,12,images/e13_1917-766.7.jpg,TRUE,2265
18,1,1,92,12,images/e49_4000-900.jpg,TRUE,2016
18,1,1,93,12,images/e07_1500-900.jpg,TRUE,1965
18,1,1,94,12,images/e09_1917-233.3.jpg,TRUE,2067
18,1,1,95,12,images/e13_1917-766.7.jpg,TRUE,1849
18,1,1,96,12,images/e07_1500-900.jpg,TRUE,2332
19,1,0,1,1,images/e07_1500-900.jpg,FALSE,4598
19,1,0,2,1,images/e41_3583-766.7.jpg,FALSE,3629
19,1,0,3,1,images/e01_1500-100.jpg,FALSE,4154
19,1,0,4,1,images/e49_4000-900.jpg,TRUE,2858
19,1,0,5,1,images/e13_1917-766.7.jpg,TRUE,1672
19,1,0,6,1,images/e13_1917-766.7.jpg,TRUE,1424
19,1,0,7,1,images/e09_1917-233.3.jpg,TRUE,1444
19,1,0,8,1,images/e07_1500-900.jpg,TRUE,1483
19,1,0,9,2,images/e07_1500-900.jpg,TRUE,1293
19,1,0,10,2,images/e07_1500-900.jpg,TRUE,1317
19,1,0,11,2,images/e49_4000-900.jpg,TRUE,1383
19,1,0,12,2,images/e01_1500-100.jpg,TRUE,1159
19,1,0,13,2,images/e13_1917-766.7.jpg,TRUE,1429
19,1,0,14,2,images/e13_1917-766.7.jpg,TRUE,1211
19,1,0,15,2,images/e41_3583-766.7.jpg,TRUE,1548
19,1,0,16,2,images/e09_1917-233.3.jpg,TRUE,1420
19,1,0,17,3,images/e09_1917-233.3.jpg,TRUE,1508
19,1,0,18,3,images/e13_1917-766.7.jpg,TRUE,1165
19,1,0,19,3,images/e01_1500-100.jpg,TRUE,1374
19,1,0,20,3,images/e41_3583-766.7.jpg,TRUE,2243
19,1,0,21,3,images/e49_4000-900.jpg,TRUE,1298
19,1,0,22,3,images/e07_1500-900.jpg,FALSE,2548
19,1,0,23,3,images/e07_1500-900.jpg,TRUE,1716
19,1,0,24,3,images/e13_1917-766.7.jpg,TRUE,2014
19,1,0,25,4,images/e07_1500-900.jpg,TRUE,1313
19,1,0,26,4,images/e49_4000-900.jpg,TRUE,1172
19,1,0,27,4,images/e01_1500-100.jpg,TRUE,2350
19,1,0,28,4,images/e13_1917-766.7.jpg,TRUE,1430
19,1,0,29,4,images/e09_1917-233.3.jpg,TRUE,1291
19,1,0,30,4,images/e41_3583-766.7.jpg,TRUE,1800
19,1,0,31,4,images/e07_1500-900.jpg,TRUE,1215
19,1,0,32,4,images/e13_1917-766.7.jpg,TRUE,1464
19,1,0,33,5,images/e13_1917-766.7.jpg,TRUE,1191
19,1,0,34,5,images/e01_1500-100.jpg,TRUE,1068
19,1,0,35,5,images/e41_3583-766.7.jpg,TRUE,1436
19,1,0,36,5,images/e49_4000-900.jpg,TRUE,2215
19,1,0,37,5,images/e13_1917-766.7.jpg,TRUE,1487
19,1,0,38,5,images/e07_1500-900.jpg,TRUE,1535
19,1,0,39,5,images/e09_1917-233.3.jpg,TRUE,1123
19,1,0,40,5,images/e07_1500-900.jpg,FALSE,1576
19,1,0,41,6,images/e13_1917-766.7.jpg,TRUE,2591
19,1,0,42,6,images/e49_4000-900.jpg,TRUE,2845
19,1,0,43,6,images/e07_1500-900.jpg,TRUE,1834
19,1,0,44,6,images/e41_3583-766.7.jpg,TRUE,1230
19,1,0,45,6,images/e13_1917-766.7.jpg,TRUE,1587
19,1,0,46,6,images/e01_1500-100.jpg,TRUE,1175
19,1,0,47,6,images/e09_1917-233.3.jpg,TRUE,1172
19,1,0,48,6,images/e07_1500-900.jpg,TRUE,1710
19,1,0,49,7,images/e13_1917-766.7.jpg,TRUE,1114
19,1,0,50,7,images/e07_1500-900.jpg,TRUE,1160
19,1,0,51,7,images/e07_1500-900.jpg,TRUE,1233
19,1,0,52,7,images/e01_1500-100.jpg,TRUE,1449
19,1,0,53,7,images/e09_1917-233.3.jpg,TRUE,1009
19,1,0,54,7,images/e49_4000-900.jpg,TRUE,1423
19,1,0,55,7,images/e13_1917-766.7.jpg,FALSE,1791
19,1,0,56,7,images/e41_3583-766.7.jpg,FALSE,2391
19,1,0,57,8,images/e01_1500-100.jpg,TRUE,1557
19,1,0,58,8,images/e49_4000-900.jpg,TRUE,1414
19,1,0,59,8,images/e09_1917-233.3.jpg,TRUE,3438
19,1,0,60,8,images/e07_1500-900.jpg,TRUE,1126
19,1,0,61,8,images/e13_1917-766.7.jpg,TRUE,1039
19,1,0,62,8,images/e13_1917-766.7.jpg,TRUE,1099
19,1,0,63,8,images/e07_1500-900.jpg,TRUE,1269
19,1,0,64,8,images/e41_3583-766.7.jpg,TRUE,1150
19,1,0,65,9,images/e09_1917-233.3.jpg,TRUE,1093
19,1,0,66,9,images/e13_1917-766.7.jpg,FALSE,1842
19,1,0,67,9,images/e01_1500-100.jpg,TRUE,3264
19,1,0,68,9,images/e07_1500-900.jpg,TRUE,1350
19,1,0,69,9,images/e49_4000-900.jpg,TRUE,2277
19,1,0,70,9,images/e07_1500-900.jpg,TRUE,1399
19,1,0,71,9,images/e13_1917-766.7.jpg,TRUE,1865
19,1,0,72,9,images/e41_3583-766.7.jpg,TRUE,1399
19,1,0,73,10,images/e07_1500-900.jpg,TRUE,2023
19,1,0,74,10,images/e41_3583-766.7.jpg,TRUE,1470
19,1,0,75,10,images/e07_1500-900.jpg,TRUE,4555
19,1,0,76,10,images/e09_1917-233.3.jpg,TRUE,2389
19,1,0,77,10,images/e01_1500-100.jpg,TRUE,912
19,1,0,78,10,images/e13_1917-766.7.jpg,TRUE,1356
19,1,0,79,10,images/e13_1917-766.7.jpg,TRUE,1479
19,1,0,80,10,images/e49_4000-900.jpg,TRUE,1899
19,1,0,81,11,images/e13_1917-766.7.jpg,TRUE,2565
19,1,0,82,11,images/e49_4000-900.jpg,TRUE,1279
19,1,0,83,11,images/e09_1917-233.3.jpg,TRUE,1270
19,1,0,84,11,images/e13_1917-766.7.jpg,TRUE,1908
19,1,0,85,11,images/e01_1500-100.jpg,TRUE,1379
19,1,0,86,11,images/e41_3583-766.7.jpg,TRUE,5169
19,1,0,87,11,images/e07_1500-900.jpg,TRUE,1626
19,1,0,88,11,images/e07_1500-900.jpg,TRUE,1297
19,1,0,89,12,images/e41_3583-766.7.jpg,TRUE,1304
19,1,0,90,12,images/e49_4000-900.jpg,TRUE,1542
19,1,0,91,12,images/e13_1917-766.7.jpg,TRUE,1565
19,1,0,92,12,images/e13_1917-766.7.jpg,TRUE,1149
19,1,0,93,12,images/e01_1500-100.jpg,TRUE,1298
19,1,0,94,12,images/e07_1500-900.jpg,TRUE,3784
19,1,0,95,12,images/e09_1917-233.3.jpg,TRUE,1290
19,1,0,96,12,images/e07_1500-900.jpg,TRUE,1299
20,0,0,1,1,images/e01_1500-100.jpg,TRUE,5503
20,0,0,2,1,images/e49_4000-900.jpg,FALSE,9223
20,0,0,3,1,images/e41_3583-766.7.jpg,TRUE,2968
20,0,0,4,1,images/e13_1917-766.7.jpg,FALSE,13008
20,0,0,5,1,images/e09_1917-233.3.jpg,TRUE,2456
20,0,0,6,1,images/e07_1500-900.jpg,TRUE,2191
20,0,0,7,1,images/e07_1500-900.jpg,TRUE,3792
20,0,0,8,1,images/e13_1917-766.7.jpg,FALSE,2768
20,0,0,9,2,images/e01_1500-100.jpg,TRUE,2408
20,0,0,10,2,images/e41_3583-766.7.jpg,TRUE,2208
20,0,0,11,2,images/e13_1917-766.7.jpg,TRUE,2104
20,0,0,12,2,images/e07_1500-900.jpg,TRUE,1816
20,0,0,13,2,images/e09_1917-233.3.jpg,TRUE,1728
20,0,0,14,2,images/e49_4000-900.jpg,TRUE,1864
20,0,0,15,2,images/e07_1500-900.jpg,TRUE,1672
20,0,0,16,2,images/e13_1917-766.7.jpg,TRUE,1712
20,0,0,17,3,images/e01_1500-100.jpg,TRUE,1784
20,0,0,18,3,images/e07_1500-900.jpg,TRUE,2000
20,0,0,19,3,images/e13_1917-766.7.jpg,TRUE,2296
20,0,0,20,3,images/e49_4000-900.jpg,TRUE,1640
20,0,0,21,3,images/e13_1917-766.7.jpg,TRUE,1744
20,0,0,22,3,images/e07_1500-900.jpg,TRUE,4776
20,0,0,23,3,images/e41_3583-766.7.jpg,TRUE,1584
20,0,0,24,3,images/e09_1917-233.3.jpg,TRUE,1408
20,0,0,25,4,images/e41_3583-766.7.jpg,TRUE,2504
20,0,0,26,4,images/e13_1917-766.7.jpg,TRUE,1712
20,0,0,27,4,images/e01_1500-100.jpg,TRUE,1872
20,0,0,28,4,images/e13_1917-766.7.jpg,TRUE,1784
20,0,0,29,4,images/e07_1500-900.jpg,TRUE,1632
20,0,0,30,4,images/e49_4000-900.jpg,TRUE,1536
20,0,0,31,4,images/e07_1500-900.jpg,TRUE,2224
20,0,0,32,4,images/e09_1917-233.3.jpg,TRUE,1504
20,0,0,33,5,images/e13_1917-766.7.jpg,TRUE,1672
20,0,0,34,5,images/e41_3583-766.7.jpg,TRUE,1744
20,0,0,35,5,images/e09_1917-233.3.jpg,TRUE,1408
20,0,0,36,5,images/e07_1500-900.jpg,TRUE,1440
20,0,0,37,5,images/e49_4000-900.jpg,TRUE,1672
20,0,0,38,5,images/e13_1917-766.7.jpg,TRUE,1744
20,0,0,39,5,images/e01_1500-100.jpg,TRUE,1640
20,0,0,40,5,images/e07_1500-900.jpg,TRUE,1696
20,0,0,41,6,images/e41_3583-766.7.jpg,TRUE,2087
20,0,0,42,6,images/e49_4000-900.jpg,TRUE,2880
20,0,0,43,6,images/e01_1500-100.jpg,TRUE,1624
20,0,0,44,6,images/e13_1917-766.7.jpg,TRUE,2104
20,0,0,45,6,images/e07_1500-900.jpg,TRUE,1504
20,0,0,46,6,images/e13_1917-766.7.jpg,TRUE,1640
20,0,0,47,6,images/e07_1500-900.jpg,TRUE,1472
20,0,0,48,6,images/e09_1917-233.3.jpg,TRUE,1752
20,0,0,49,7,images/e01_1500-100.jpg,TRUE,2328
20,0,0,50,7,images/e07_1500-900.jpg,TRUE,1792
20,0,0,51,7,images/e09_1917-233.3.jpg,TRUE,1744
20,0,0,52,7,images/e07_1500-900.jpg,TRUE,1736
20,0,0,53,7,images/e13_1917-766.7.jpg,TRUE,1840
20,0,0,54,7,images/e13_1917-766.7.jpg,TRUE,2432
20,0,0,55,7,images/e41_3583-766.7.jpg,TRUE,1760
20,0,0,56,7,images/e49_4000-900.jpg,TRUE,1640
20,0,0,57,8,images/e13_1917-766.7.jpg,TRUE,1704
20,0,0,58,8,images/e13_1917-766.7.jpg,TRUE,1896
20,0,0,59,8,images/e49_4000-900.jpg,TRUE,1592
20,0,0,60,8,images/e41_3583-766.7.jpg,TRUE,1344
20,0,0,61,8,images/e07_1500-900.jpg,TRUE,1584
20,0,0,62,8,images/e07_1500-900.jpg,TRUE,3112
20,0,0,63,8,images/e01_1500-100.jpg,TRUE,1472
20,0,0,64,8,images/e09_1917-233.3.jpg,TRUE,1856
20,0,0,65,9,images/e13_1917-766.7.jpg,TRUE,1704
20,0,0,66,9,images/e07_1500-900.jpg,TRUE,2032
20,0,0,67,9,images/e49_4000-900.jpg,TRUE,5424
20,0,0,68,9,images/e01_1500-100.jpg,TRUE,1680
20,0,0,69,9,images/e41_3583-766.7.jpg,TRUE,2008
20,0,0,70,9,images/e07_1500-900.jpg,TRUE,1584
20,0,0,71,9,images/e09_1917-233.3.jpg,TRUE,1728
20,0,0,72,9,images/e13_1917-766.7.jpg,TRUE,1536
20,0,0,73,10,images/e01_1500-100.jpg,TRUE,1464
20,0,0,74,10,images/e13_1917-766.7.jpg,TRUE,1784
20,0,0,75,10,images/e07_1500-900.jpg,TRUE,1720
20,0,0,76,10,images/e49_4000-900.jpg,TRUE,2032
20,0,0,77,10,images/e13_1917-766.7.jpg,TRUE,1824
20,0,0,78,10,images/e09_1917-233.3.jpg,TRUE,1600
20,0,0,79,10,images/e07_1500-900.jpg,TRUE,1720
20,0,0,80,10,images/e41_3583-766.7.jpg,TRUE,1688
20,0,0,81,11,images/e07_1500-900.jpg,TRUE,2384
20,0,0,82,11,images/e49_4000-900.jpg,TRUE,1696
20,0,0,83,11,images/e09_1917-233.3.jpg,TRUE,1656
20,0,0,84,11,images/e01_1500-100.jpg,TRUE,1576
20,0,0,85,11,images/e07_1500-900.jpg,TRUE,1752
20,0,0,86,11,images/e13_1917-766.7.jpg,TRUE,2928
20,0,0,87,11,images/e13_1917-766.7.jpg,TRUE,1616
20,0,0,88,11,images/e41_3583-766.7.jpg,TRUE,4984
20,0,0,89,12,images/e07_1500-900.jpg,TRUE,1536
20,0,0,90,12,images/e13_1917-766.7.jpg,TRUE,2592
20,0,0,91,12,images/e13_1917-766.7.jpg,TRUE,1512
20,0,0,92,12,images/e07_1500-900.jpg,TRUE,4856
20,0,0,93,12,images/e09_1917-233.3.jpg,TRUE,1504
20,0,0,94,12,images/e41_3583-766.7.jpg,TRUE,1464
20,0,0,95,12,images/e49_4000-900.jpg,TRUE,1376
20,0,0,96,12,images/e01_1500-100.jpg,TRUE,1552
21,0,0,1,1,images/e41_3583-766.7.jpg,TRUE,9716
21,0,0,2,1,images/e13_1917-766.7.jpg,TRUE,4260
21,0,0,3,1,images/e09_1917-233.3.jpg,FALSE,8861
21,0,0,4,1,images/e07_1500-900.jpg,TRUE,5480
21,0,0,5,1,images/e01_1500-100.jpg,TRUE,4667
21,0,0,6,1,images/e07_1500-900.jpg,TRUE,3058
21,0,0,7,1,images/e49_4000-900.jpg,TRUE,4343
21,0,0,8,1,images/e13_1917-766.7.jpg,TRUE,4614
21,0,0,9,2,images/e13_1917-766.7.jpg,TRUE,3713
21,0,0,10,2,images/e01_1500-100.jpg,TRUE,2277
21,0,0,11,2,images/e49_4000-900.jpg,FALSE,4932
21,0,0,12,2,images/e13_1917-766.7.jpg,TRUE,2381
21,0,0,13,2,images/e41_3583-766.7.jpg,TRUE,1680
21,0,0,14,2,images/e09_1917-233.3.jpg,FALSE,5618
21,0,0,15,2,images/e07_1500-900.jpg,TRUE,2828
21,0,0,16,2,images/e07_1500-900.jpg,TRUE,1937
21,0,0,17,3,images/e49_4000-900.jpg,TRUE,2433
21,0,0,18,3,images/e13_1917-766.7.jpg,TRUE,3054
21,0,0,19,3,images/e13_1917-766.7.jpg,TRUE,1516
21,0,0,20,3,images/e09_1917-233.3.jpg,TRUE,2072
21,0,0,21,3,images/e07_1500-900.jpg,TRUE,2806
21,0,0,22,3,images/e01_1500-100.jpg,TRUE,2263
21,0,0,23,3,images/e41_3583-766.7.jpg,TRUE,5629
21,0,0,24,3,images/e07_1500-900.jpg,TRUE,2652
21,0,0,25,4,images/e09_1917-233.3.jpg,TRUE,1801
21,0,0,26,4,images/e01_1500-100.jpg,TRUE,2113
21,0,0,27,4,images/e13_1917-766.7.jpg,TRUE,2426
21,0,0,28,4,images/e49_4000-900.jpg,TRUE,2947
21,0,0,29,4,images/e41_3583-766.7.jpg,TRUE,2340
21,0,0,30,4,images/e07_1500-900.jpg,TRUE,5130
21,0,0,31,4,images/e13_1917-766.7.jpg,TRUE,2629
21,0,0,32,4,images/e07_1500-900.jpg,TRUE,1908
21,0,0,33,5,images/e49_4000-900.jpg,TRUE,2676
21,0,0,34,5,images/e13_1917-766.7.jpg,TRUE,2158
21,0,0,35,5,images/e01_1500-100.jpg,TRUE,2496
21,0,0,36,5,images/e13_1917-766.7.jpg,TRUE,2355
21,0,0,37,5,images/e07_1500-900.jpg,TRUE,2233
21,0,0,38,5,images/e41_3583-766.7.jpg,TRUE,1971
21,0,0,39,5,images/e07_1500-900.jpg,TRUE,2003
21,0,0,40,5,images/e09_1917-233.3.jpg,TRUE,2155
21,0,0,41,6,images/e07_1500-900.jpg,TRUE,2384
21,0,0,42,6,images/e49_4000-900.jpg,TRUE,1710
21,0,0,43,6,images/e01_1500-100.jpg,TRUE,1815
21,0,0,44,6,images/e09_1917-233.3.jpg,TRUE,1448
21,0,0,45,6,images/e07_1500-900.jpg,FALSE,2156
21,0,0,46,6,images/e13_1917-766.7.jpg,TRUE,2376
21,0,0,47,6,images/e13_1917-766.7.jpg,TRUE,1402
21,0,0,48,6,images/e41_3583-766.7.jpg,TRUE,1663
21,0,0,49,7,images/e13_1917-766.7.jpg,FALSE,2201
21,0,0,50,7,images/e49_4000-900.jpg,TRUE,7641
21,0,0,51,7,images/e07_1500-900.jpg,TRUE,1797
21,0,0,52,7,images/e07_1500-900.jpg,TRUE,2127
21,0,0,53,7,images/e01_1500-100.jpg,TRUE,3444
21,0,0,54,7,images/e41_3583-766.7.jpg,FALSE,2202
21,0,0,55,7,images/e13_1917-766.7.jpg,TRUE,6128
21,0,0,56,7,images/e09_1917-233.3.jpg,TRUE,2622
21,0,0,57,8,images/e13_1917-766.7.jpg,TRUE,1722
21,0,0,58,8,images/e07_1500-900.jpg,TRUE,1482
21,0,0,59,8,images/e01_1500-100.jpg,TRUE,1914
21,0,0,60,8,images/e07_1500-900.jpg,TRUE,2212
21,0,0,61,8,images/e49_4000-900.jpg,TRUE,1924
21,0,0,62,8,images/e09_1917-233.3.jpg,TRUE,1745
21,0,0,63,8,images/e13_1917-766.7.jpg,TRUE,2882
21,0,0,64,8,images/e41_3583-766.7.jpg,TRUE,2590
21,0,0,65,9,images/e41_3583-766.7.jpg,TRUE,2823
21,0,0,66,9,images/e13_1917-766.7.jpg,TRUE,2078
21,0,0,67,9,images/e13_1917-766.7.jpg,TRUE,1992
21,0,0,68,9,images/e07_1500-900.jpg,TRUE,1775
21,0,0,69,9,images/e07_1500-900.jpg,TRUE,1580
21,0,0,70,9,images/e01_1500-100.jpg,TRUE,1479
21,0,0,71,9,images/e09_1917-233.3.jpg,TRUE,1426
21,0,0,72,9,images/e49_4000-900.jpg,TRUE,2767
21,0,0,73,10,images/e07_1500-900.jpg,TRUE,9177
21,0,0,74,10,images/e13_1917-766.7.jpg,TRUE,1940
21,0,0,75,10,images/e41_3583-766.7.jpg,FALSE,3364
21,0,0,76,10,images/e13_1917-766.7.jpg,TRUE,3162
21,0,0,77,10,images/e01_1500-100.jpg,TRUE,2035
21,0,0,78,10,images/e09_1917-233.3.jpg,TRUE,1580
21,0,0,79,10,images/e49_4000-900.jpg,FALSE,2947
21,0,0,80,10,images/e07_1500-900.jpg,TRUE,8374
21,0,0,81,11,images/e01_1500-100.jpg,TRUE,1690
21,0,0,82,11,images/e49_4000-900.jpg,TRUE,2756
21,0,0,83,11,images/e09_1917-233.3.jpg,TRUE,1690
21,0,0,84,11,images/e07_1500-900.jpg,TRUE,1462
21,0,0,85,11,images/e07_1500-900.jpg,TRUE,1446
21,0,0,86,11,images/e13_1917-766.7.jpg,TRUE,1710
21,0,0,87,11,images/e13_1917-766.7.jpg,TRUE,1189
21,0,0,88,11,images/e41_3583-766.7.jpg,TRUE,1713
21,0,0,89,12,images/e13_1917-766.7.jpg,TRUE,1682
21,0,0,90,12,images/e07_1500-900.jpg,TRUE,1367
21,0,0,91,12,images/e13_1917-766.7.jpg,TRUE,1243
21,0,0,92,12,images/e49_4000-900.jpg,TRUE,1650
21,0,0,93,12,images/e07_1500-900.jpg,TRUE,1757
21,0,0,94,12,images/e41_3583-766.7.jpg,TRUE,1912
21,0,0,95,12,images/e01_1500-100.jpg,TRUE,1737
21,0,0,96,12,images/e09_1917-233.3.jpg,TRUE,1390
22,0,1,1,1,images/e01_1500-100.jpg,FALSE,7384
22,0,1,2,1,images/e07_1500-900.jpg,TRUE,8817
22,0,1,3,1,images/e09_1917-233.3.jpg,TRUE,2648
22,0,1,4,1,images/e13_1917-766.7.jpg,TRUE,3071
22,0,1,5,1,images/e01_1500-100.jpg,TRUE,3042
22,0,1,6,1,images/e07_1500-900.jpg,TRUE,2469
22,0,1,7,1,images/e13_1917-766.7.jpg,TRUE,4811
22,0,1,8,1,images/e09_1917-233.3.jpg,TRUE,1770
22,0,1,9,2,images/e13_1917-766.7.jpg,TRUE,1826
22,0,1,10,2,images/e07_1500-900.jpg,TRUE,2354
22,0,1,11,2,images/e01_1500-100.jpg,TRUE,1715
22,0,1,12,2,images/e09_1917-233.3.jpg,TRUE,2558
22,0,1,13,2,images/e13_1917-766.7.jpg,TRUE,1721
22,0,1,14,2,images/e09_1917-233.3.jpg,TRUE,1931
22,0,1,15,2,images/e01_1500-100.jpg,TRUE,1846
22,0,1,16,2,images/e07_1500-900.jpg,TRUE,1403
22,0,1,17,3,images/e41_3583-766.7.jpg,FALSE,7595
22,0,1,18,3,images/e07_1500-900.jpg,FALSE,5130
22,0,1,19,3,images/e01_1500-100.jpg,TRUE,2300
22,0,1,20,3,images/e13_1917-766.7.jpg,TRUE,2444
22,0,1,21,3,images/e49_4000-900.jpg,TRUE,3852
22,0,1,22,3,images/e07_1500-900.jpg,TRUE,3748
22,0,1,23,3,images/e13_1917-766.7.jpg,TRUE,2599
22,0,1,24,3,images/e09_1917-233.3.jpg,TRUE,2041
22,0,1,25,4,images/e01_1500-100.jpg,TRUE,1731
22,0,1,26,4,images/e07_1500-900.jpg,TRUE,2951
22,0,1,27,4,images/e09_1917-233.3.jpg,TRUE,1866
22,0,1,28,4,images/e13_1917-766.7.jpg,TRUE,2420
22,0,1,29,4,images/e07_1500-900.jpg,TRUE,2608
22,0,1,30,4,images/e49_4000-900.jpg,TRUE,3319
22,0,1,31,4,images/e41_3583-766.7.jpg,TRUE,2594
22,0,1,32,4,images/e13_1917-766.7.jpg,TRUE,2081
22,0,1,33,5,images/e07_1500-900.jpg,TRUE,1710
22,0,1,34,5,images/e01_1500-100.jpg,TRUE,1892
22,0,1,35,5,images/e41_3583-766.7.jpg,TRUE,2794
22,0,1,36,5,images/e13_1917-766.7.jpg,TRUE,2174
22,0,1,37,5,images/e07_1500-900.jpg,TRUE,1442
22,0,1,38,5,images/e49_4000-900.jpg,TRUE,1690
22,0,1,39,5,images/e13_1917-766.7.jpg,TRUE,2018
22,0,1,40,5,images/e09_1917-233.3.jpg,TRUE,1638
22,0,1,41,6,images/e09_1917-233.3.jpg,TRUE,1836
22,0,1,42,6,images/e41_3583-766.7.jpg,TRUE,2180
22,0,1,43,6,images/e01_1500-100.jpg,TRUE,1422
22,0,1,44,6,images/e07_1500-900.jpg,TRUE,1701
22,0,1,45,6,images/e49_4000-900.jpg,TRUE,1547
22,0,1,46,6,images/e13_1917-766.7.jpg,TRUE,2492
22,0,1,47,6,images/e13_1917-766.7.jpg,TRUE,1770
22,0,1,48,6,images/e07_1500-900.jpg,TRUE,1842
22,0,1,49,7,images/e07_1500-900.jpg,TRUE,1468
22,0,1,50,7,images/e01_1500-100.jpg,TRUE,1638
22,0,1,51,7,images/e41_3583-766.7.jpg,TRUE,1756
22,0,1,52,7,images/e13_1917-766.7.jpg,TRUE,1628
22,0,1,53,7,images/e09_1917-233.3.jpg,TRUE,1530
22,0,1,54,7,images/e49_4000-900.jpg,TRUE,1824
22,0,1,55,7,images/e13_1917-766.7.jpg,TRUE,2275
22,0,1,56,7,images/e07_1500-900.jpg,TRUE,1870
22,0,1,57,8,images/e49_4000-900.jpg,TRUE,1454
22,0,1,58,8,images/e07_1500-900.jpg,TRUE,1704
22,0,1,59,8,images/e07_1500-900.jpg,TRUE,1302
22,0,1,60,8,images/e13_1917-766.7.jpg,TRUE,1558
22,0,1,61,8,images/e09_1917-233.3.jpg,TRUE,1518
22,0,1,62,8,images/e01_1500-100.jpg,TRUE,1282
22,0,1,63,8,images/e41_3583-766.7.jpg,TRUE,1412
22,0,1,64,8,images/e13_1917-766.7.jpg,TRUE,1306
22,0,1,65,9,images/e01_1500-100.jpg,TRUE,1391
22,0,1,66,9,images/e07_1500-900.jpg,TRUE,1952
22,0,1,67,9,images/e41_3583-766.7.jpg,TRUE,1136
22,0,1,68,9,images/e13_1917-766.7.jpg,TRUE,1244
22,0,1,69,9,images/e49_4000-900.jpg,TRUE,1140
22,0,1,70,9,images/e07_1500-900.jpg,TRUE,1554
22,0,1,71,9,images/e13_1917-766.7.jpg,TRUE,1448
22,0,1,72,9,images/e09_1917-233.3.jpg,TRUE,1502
22,0,1,73,10,images/e49_4000-900.jpg,TRUE,1610
22,0,1,74,10,images/e13_1917-766.7.jpg,TRUE,1836
22,0,1,75,10,images/e13_1917-766.7.jpg,TRUE,1458
22,0,1,76,10,images/e01_1500-100.jpg,TRUE,1311
22,0,1,77,10,images/e07_1500-900.jpg,TRUE,2119
22,0,1,78,10,images/e07_1500-900.jpg,TRUE,1588
22,0,1,79,10,images/e09_1917-233.3.jpg,TRUE,1729
22,0,1,80,10,images/e41_3583-766.7.jpg,TRUE,1312
22,0,1,81,11,images/e49_4000-900.jpg,TRUE,2606
22,0,1,82,11,images/e13_1917-766.7.jpg,TRUE,1932
22,0,1,83,11,images/e13_1917-766.7.jpg,TRUE,1246
22,0,1,84,11,images/e41_3583-766.7.jpg,TRUE,2986
22,0,1,85,11,images/e01_1500-100.jpg,TRUE,1978
22,0,1,86,11,images/e07_1500-900.jpg,TRUE,1886
22,0,1,87,11,images/e09_1917-233.3.jpg,TRUE,1322
22,0,1,88,11,images/e07_1500-900.jpg,TRUE,1426
22,0,1,89,12,images/e41_3583-766.7.jpg,TRUE,2438
22,0,1,90,12,images/e07_1500-900.jpg,TRUE,1638
22,0,1,91,12,images/e07_1500-900.jpg,TRUE,1474
22,0,1,92,12,images/e09_1917-233.3.jpg,TRUE,1542
22,0,1,93,12,images/e49_4000-900.jpg,TRUE,1292
22,0,1,94,12,images/e13_1917-766.7.jpg,TRUE,1473
22,0,1,95,12,images/e13_1917-766.7.jpg,TRUE,1390
22,0,1,96,12,images/e01_1500-100.jpg,TRUE,1478
23,1,0,1,1,images/e07_1500-900.jpg,FALSE,3854
23,1,0,2,1,images/e07_1500-900.jpg,FALSE,4440
23,1,0,3,1,images/e13_1917-766.7.jpg,FALSE,2928
23,1,0,4,1,images/e01_1500-100.jpg,TRUE,3528
23,1,0,5,1,images/e49_4000-900.jpg,FALSE,2784
23,1,0,6,1,images/e41_3583-766.7.jpg,TRUE,1864
23,1,0,7,1,images/e09_1917-233.3.jpg,TRUE,2536
23,1,0,8,1,images/e13_1917-766.7.jpg,TRUE,2032
23,1,0,9,2,images/e13_1917-766.7.jpg,TRUE,1600
23,1,0,10,2,images/e49_4000-900.jpg,TRUE,1760
23,1,0,11,2,images/e13_1917-766.7.jpg,TRUE,1880
23,1,0,12,2,images/e09_1917-233.3.jpg,TRUE,1776
23,1,0,13,2,images/e41_3583-766.7.jpg,TRUE,1752
23,1,0,14,2,images/e07_1500-900.jpg,TRUE,1776
23,1,0,15,2,images/e07_1500-900.jpg,TRUE,1544
23,1,0,16,2,images/e01_1500-100.jpg,TRUE,3408
23,1,0,17,3,images/e07_1500-900.jpg,TRUE,1784
23,1,0,18,3,images/e49_4000-900.jpg,TRUE,1824
23,1,0,19,3,images/e07_1500-900.jpg,TRUE,1544
23,1,0,20,3,images/e13_1917-766.7.jpg,TRUE,6976
23,1,0,21,3,images/e01_1500-100.jpg,TRUE,2248
23,1,0,22,3,images/e09_1917-233.3.jpg,TRUE,2384
23,1,0,23,3,images/e41_3583-766.7.jpg,TRUE,2320
23,1,0,24,3,images/e13_1917-766.7.jpg,TRUE,2352
23,1,0,25,4,images/e01_1500-100.jpg,TRUE,1664
23,1,0,26,4,images/e07_1500-900.jpg,TRUE,1744
23,1,0,27,4,images/e07_1500-900.jpg,TRUE,1512
23,1,0,28,4,images/e13_1917-766.7.jpg,TRUE,2016
23,1,0,29,4,images/e49_4000-900.jpg,TRUE,1608
23,1,0,30,4,images/e13_1917-766.7.jpg,FALSE,1888
23,1,0,31,4,images/e09_1917-233.3.jpg,TRUE,2192
23,1,0,32,4,images/e41_3583-766.7.jpg,TRUE,1976
23,1,0,33,5,images/e41_3583-766.7.jpg,TRUE,1704
23,1,0,34,5,images/e49_4000-900.jpg,TRUE,1720
23,1,0,35,5,images/e09_1917-233.3.jpg,TRUE,1600
23,1,0,36,5,images/e07_1500-900.jpg,FALSE,2408
23,1,0,37,5,images/e13_1917-766.7.jpg,FALSE,1912
23,1,0,38,5,images/e07_1500-900.jpg,TRUE,1864
23,1,0,39,5,images/e13_1917-766.7.jpg,TRUE,1320
23,1,0,40,5,images/e01_1500-100.jpg,TRUE,1992
23,1,0,41,6,images/e41_3583-766.7.jpg,TRUE,2528
23,1,0,42,6,images/e07_1500-900.jpg,TRUE,1632
23,1,0,43,6,images/e49_4000-900.jpg,TRUE,3472
23,1,0,44,6,images/e01_1500-100.jpg,TRUE,1576
23,1,0,45,6,images/e13_1917-766.7.jpg,TRUE,2416
23,1,0,46,6,images/e09_1917-233.3.jpg,TRUE,1616
23,1,0,47,6,images/e13_1917-766.7.jpg,TRUE,2160
23,1,0,48,6,images/e07_1500-900.jpg,TRUE,1600
23,1,0,49,7,images/e13_1917-766.7.jpg,FALSE,2216
23,1,0,50,7,images/e07_1500-900.jpg,TRUE,1656
23,1,0,51,7,images/e49_4000-900.jpg,TRUE,1920
23,1,0,52,7,images/e07_1500-900.jpg,TRUE,1672
23,1,0,53,7,images/e09_1917-233.3.jpg,TRUE,1720
23,1,0,54,7,images/e41_3583-766.7.jpg,TRUE,2560
23,1,0,55,7,images/e13_1917-766.7.jpg,TRUE,2736
23,1,0,56,7,images/e01_1500-100.jpg,TRUE,1672
23,1,0,57,8,images/e09_1917-233.3.jpg,TRUE,1720
23,1,0,58,8,images/e07_1500-900.jpg,TRUE,1920
23,1,0,59,8,images/e01_1500-100.jpg,TRUE,2584
23,1,0,60,8,images/e07_1500-900.jpg,TRUE,2208
23,1,0,61,8,images/e13_1917-766.7.jpg,TRUE,2544
23,1,0,62,8,images/e49_4000-900.jpg,TRUE,1840
23,1,0,63,8,images/e41_3583-766.7.jpg,TRUE,2152
23,1,0,64,8,images/e13_1917-766.7.jpg,TRUE,2584
23,1,0,65,9,images/e07_1500-900.jpg,TRUE,1760
23,1,0,66,9,images/e49_4000-900.jpg,TRUE,2080
23,1,0,67,9,images/e01_1500-100.jpg,TRUE,2024
23,1,0,68,9,images/e09_1917-233.3.jpg,TRUE,1815
23,1,0,69,9,images/e41_3583-766.7.jpg,FALSE,4656
23,1,0,70,9,images/e13_1917-766.7.jpg,TRUE,3288
23,1,0,71,9,images/e07_1500-900.jpg,TRUE,4512
23,1,0,72,9,images/e13_1917-766.7.jpg,TRUE,2272
23,1,0,73,10,images/e07_1500-900.jpg,TRUE,4688
23,1,0,74,10,images/e09_1917-233.3.jpg,TRUE,1704
23,1,0,75,10,images/e13_1917-766.7.jpg,TRUE,2808
23,1,0,76,10,images/e07_1500-900.jpg,TRUE,1840
23,1,0,77,10,images/e49_4000-900.jpg,TRUE,1816
23,1,0,78,10,images/e41_3583-766.7.jpg,TRUE,1728
23,1,0,79,10,images/e01_1500-100.jpg,TRUE,1872
23,1,0,80,10,images/e13_1917-766.7.jpg,FALSE,1840
23,1,0,81,11,images/e01_1500-100.jpg,TRUE,1704
23,1,0,82,11,images/e13_1917-766.7.jpg,TRUE,1408
23,1,0,83,11,images/e09_1917-233.3.jpg,TRUE,1880
23,1,0,84,11,images/e49_4000-900.jpg,TRUE,1648
23,1,0,85,11,images/e13_1917-766.7.jpg,TRUE,1984
23,1,0,86,11,images/e07_1500-900.jpg,TRUE,1560
23,1,0,87,11,images/e41_3583-766.7.jpg,TRUE,2112
23,1,0,88,11,images/e07_1500-900.jpg,TRUE,1736
23,1,0,89,12,images/e13_1917-766.7.jpg,TRUE,1544
23,1,0,90,12,images/e07_1500-900.jpg,TRUE,1296
23,1,0,91,12,images/e01_1500-100.jpg,TRUE,1592
23,1,0,92,12,images/e41_3583-766.7.jpg,TRUE,1800
23,1,0,93,12,images/e07_1500-900.jpg,TRUE,1616
23,1,0,94,12,images/e49_4000-900.jpg,TRUE,1912
23,1,0,95,12,images/e09_1917-233.3.jpg,TRUE,2208
23,1,0,96,12,images/e13_1917-766.7.jpg,FALSE,1937
24,1,1,1,1,images/e01_1500-100.jpg,FALSE,11316
24,1,1,2,1,images/e13_1917-766.7.jpg,TRUE,5279
24,1,1,3,1,images/e07_1500-900.jpg,TRUE,4390
24,1,1,4,1,images/e09_1917-233.3.jpg,TRUE,3040
24,1,1,5,1,images/e01_1500-100.jpg,TRUE,3098
24,1,1,6,1,images/e07_1500-900.jpg,TRUE,2786
24,1,1,7,1,images/e13_1917-766.7.jpg,FALSE,6982
24,1,1,8,1,images/e09_1917-233.3.jpg,TRUE,4304
24,1,1,9,2,images/e01_1500-100.jpg,TRUE,5392
24,1,1,10,2,images/e07_1500-900.jpg,TRUE,3412
24,1,1,11,2,images/e13_1917-766.7.jpg,TRUE,3996
24,1,1,12,2,images/e09_1917-233.3.jpg,TRUE,3185
24,1,1,13,2,images/e13_1917-766.7.jpg,TRUE,3152
24,1,1,14,2,images/e09_1917-233.3.jpg,TRUE,3597
24,1,1,15,2,images/e07_1500-900.jpg,TRUE,3151
24,1,1,16,2,images/e01_1500-100.jpg,TRUE,4070
24,1,1,17,3,images/e09_1917-233.3.jpg,TRUE,2089
24,1,1,18,3,images/e07_1500-900.jpg,TRUE,1636
24,1,1,19,3,images/e13_1917-766.7.jpg,TRUE,1839
24,1,1,20,3,images/e49_4000-900.jpg,FALSE,13822
24,1,1,21,3,images/e13_1917-766.7.jpg,TRUE,2547
24,1,1,22,3,images/e41_3583-766.7.jpg,FALSE,3204
24,1,1,23,3,images/e01_1500-100.jpg,TRUE,2110
24,1,1,24,3,images/e07_1500-900.jpg,TRUE,4992
24,1,1,25,4,images/e13_1917-766.7.jpg,TRUE,1871
24,1,1,26,4,images/e01_1500-100.jpg,TRUE,1889
24,1,1,27,4,images/e07_1500-900.jpg,TRUE,1911
24,1,1,28,4,images/e41_3583-766.7.jpg,TRUE,2496
24,1,1,29,4,images/e13_1917-766.7.jpg,TRUE,2433
24,1,1,30,4,images/e07_1500-900.jpg,TRUE,1821
24,1,1,31,4,images/e49_4000-900.jpg,TRUE,2468
24,1,1,32,4,images/e09_1917-233.3.jpg,TRUE,3065
24,1,1,33,5,images/e13_1917-766.7.jpg,TRUE,2405
24,1,1,34,5,images/e49_4000-900.jpg,TRUE,2565
24,1,1,35,5,images/e13_1917-766.7.jpg,TRUE,2671
24,1,1,36,5,images/e01_1500-100.jpg,TRUE,3656
24,1,1,37,5,images/e09_1917-233.3.jpg,TRUE,2804
24,1,1,38,5,images/e41_3583-766.7.jpg,TRUE,2358
24,1,1,39,5,images/e07_1500-900.jpg,TRUE,5604
24,1,1,40,5,images/e07_1500-900.jpg,TRUE,3524
24,1,1,41,6,images/e09_1917-233.3.jpg,TRUE,2144
24,1,1,42,6,images/e07_1500-900.jpg,TRUE,2197
24,1,1,43,6,images/e01_1500-100.jpg,TRUE,2375
24,1,1,44,6,images/e13_1917-766.7.jpg,TRUE,2900
24,1,1,45,6,images/e49_4000-900.jpg,TRUE,2404
24,1,1,46,6,images/e41_3583-766.7.jpg,TRUE,2597
24,1,1,47,6,images/e07_1500-900.jpg,TRUE,1819
24,1,1,48,6,images/e13_1917-766.7.jpg,TRUE,2825
24,1,1,49,7,images/e13_1917-766.7.jpg,TRUE,1661
24,1,1,50,7,images/e07_1500-900.jpg,TRUE,1649
24,1,1,51,7,images/e07_1500-900.jpg,TRUE,1689
24,1,1,52,7,images/e09_1917-233.3.jpg,TRUE,1574
24,1,1,53,7,images/e01_1500-100.jpg,TRUE,2521
24,1,1,54,7,images/e49_4000-900.jpg,TRUE,2636
24,1,1,55,7,images/e41_3583-766.7.jpg,TRUE,2184
24,1,1,56,7,images/e13_1917-766.7.jpg,TRUE,1587
24,1,1,57,8,images/e13_1917-766.7.jpg,TRUE,1709
24,1,1,58,8,images/e41_3583-766.7.jpg,TRUE,1544
24,1,1,59,8,images/e49_4000-900.jpg,TRUE,2204
24,1,1,60,8,images/e01_1500-100.jpg,TRUE,2330
24,1,1,61,8,images/e07_1500-900.jpg,TRUE,2932
24,1,1,62,8,images/e09_1917-233.3.jpg,TRUE,4730
24,1,1,63,8,images/e07_1500-900.jpg,TRUE,1949
24,1,1,64,8,images/e13_1917-766.7.jpg,TRUE,2486
24,1,1,65,9,images/e13_1917-766.7.jpg,TRUE,1532
24,1,1,66,9,images/e41_3583-766.7.jpg,TRUE,1893
24,1,1,67,9,images/e07_1500-900.jpg,TRUE,1696
24,1,1,68,9,images/e49_4000-900.jpg,TRUE,1490
24,1,1,69,9,images/e09_1917-233.3.jpg,TRUE,2005
24,1,1,70,9,images/e01_1500-100.jpg,TRUE,2224
24,1,1,71,9,images/e07_1500-900.jpg,TRUE,2650
24,1,1,72,9,images/e13_1917-766.7.jpg,TRUE,2123
24,1,1,73,10,images/e13_1917-766.7.jpg,TRUE,1524
24,1,1,74,10,images/e09_1917-233.3.jpg,TRUE,1976
24,1,1,75,10,images/e01_1500-100.jpg,TRUE,2361
24,1,1,76,10,images/e07_1500-900.jpg,TRUE,1840
24,1,1,77,10,images/e49_4000-900.jpg,TRUE,1476
24,1,1,78,10,images/e07_1500-900.jpg,TRUE,1868
24,1,1,79,10,images/e13_1917-766.7.jpg,TRUE,1578
24,1,1,80,10,images/e41_3583-766.7.jpg,TRUE,1490
24,1,1,81,11,images/e09_1917-233.3.jpg,TRUE,2190
24,1,1,82,11,images/e41_3583-766.7.jpg,TRUE,6364
24,1,1,83,11,images/e13_1917-766.7.jpg,TRUE,1539
24,1,1,84,11,images/e07_1500-900.jpg,TRUE,2168
24,1,1,85,11,images/e07_1500-900.jpg,TRUE,1558
24,1,1,86,11,images/e49_4000-900.jpg,TRUE,1454
24,1,1,87,11,images/e01_1500-100.jpg,TRUE,1717
24,1,1,88,11,images/e13_1917-766.7.jpg,TRUE,2202
24,1,1,89,12,images/e49_4000-900.jpg,TRUE,1478
24,1,1,90,12,images/e07_1500-900.jpg,TRUE,3190
24,1,1,91,12,images/e01_1500-100.jpg,TRUE,1845
24,1,1,92,12,images/e13_1917-766.7.jpg,TRUE,2883
24,1,1,93,12,images/e09_1917-233.3.jpg,TRUE,2698
24,1,1,94,12,images/e41_3583-766.7.jpg,TRUE,3400
24,1,1,95,12,images/e13_1917-766.7.jpg,TRUE,3389
24,1,1,96,12,images/e07_1500-900.jpg,TRUE,2031
25,0,0,1,1,images/e07_1500-900.jpg,TRUE,5379
25,0,0,2,1,images/e13_1917-766.7.jpg,FALSE,4690
25,0,0,3,1,images/e01_1500-100.jpg,TRUE,3186
25,0,0,4,1,images/e13_1917-766.7.jpg,TRUE,2106
25,0,0,5,1,images/e07_1500-900.jpg,TRUE,2070
25,0,0,6,1,images/e49_4000-900.jpg,FALSE,5798
25,0,0,7,1,images/e09_1917-233.3.jpg,TRUE,4681
25,0,0,8,1,images/e41_3583-766.7.jpg,FALSE,3762
25,0,0,9,2,images/e13_1917-766.7.jpg,FALSE,4388
25,0,0,10,2,images/e07_1500-900.jpg,TRUE,3052
25,0,0,11,2,images/e41_3583-766.7.jpg,TRUE,2276
25,0,0,12,2,images/e09_1917-233.3.jpg,TRUE,2144
25,0,0,13,2,images/e07_1500-900.jpg,TRUE,2276
25,0,0,14,2,images/e49_4000-900.jpg,TRUE,2094
25,0,0,15,2,images/e13_1917-766.7.jpg,TRUE,2692
25,0,0,16,2,images/e01_1500-100.jpg,TRUE,2171
25,0,0,17,3,images/e41_3583-766.7.jpg,TRUE,2409
25,0,0,18,3,images/e01_1500-100.jpg,TRUE,2110
25,0,0,19,3,images/e09_1917-233.3.jpg,TRUE,2316
25,0,0,20,3,images/e13_1917-766.7.jpg,TRUE,2612
25,0,0,21,3,images/e07_1500-900.jpg,TRUE,2070
25,0,0,22,3,images/e49_4000-900.jpg,TRUE,2224
25,0,0,23,3,images/e13_1917-766.7.jpg,TRUE,2194
25,0,0,24,3,images/e07_1500-900.jpg,TRUE,2534
25,0,0,25,4,images/e07_1500-900.jpg,TRUE,2526
25,0,0,26,4,images/e49_4000-900.jpg,TRUE,2216
25,0,0,27,4,images/e41_3583-766.7.jpg,TRUE,2418
25,0,0,28,4,images/e13_1917-766.7.jpg,TRUE,2508
25,0,0,29,4,images/e01_1500-100.jpg,TRUE,2236
25,0,0,30,4,images/e07_1500-900.jpg,TRUE,2255
25,0,0,31,4,images/e09_1917-233.3.jpg,TRUE,1938
25,0,0,32,4,images/e13_1917-766.7.jpg,TRUE,2098
25,0,0,33,5,images/e07_1500-900.jpg,TRUE,2370
25,0,0,34,5,images/e09_1917-233.3.jpg,TRUE,1748
25,0,0,35,5,images/e49_4000-900.jpg,TRUE,2216
25,0,0,36,5,images/e41_3583-766.7.jpg,TRUE,2348
25,0,0,37,5,images/e01_1500-100.jpg,TRUE,2390
25,0,0,38,5,images/e13_1917-766.7.jpg,TRUE,2010
25,0,0,39,5,images/e13_1917-766.7.jpg,FALSE,3357
25,0,0,40,5,images/e07_1500-900.jpg,TRUE,2204
25,0,0,41,6,images/e07_1500-900.jpg,TRUE,1816
25,0,0,42,6,images/e41_3583-766.7.jpg,TRUE,2052
25,0,0,43,6,images/e49_4000-900.jpg,TRUE,2216
25,0,0,44,6,images/e09_1917-233.3.jpg,TRUE,2018
25,0,0,45,6,images/e13_1917-766.7.jpg,TRUE,2359
25,0,0,46,6,images/e01_1500-100.jpg,TRUE,2187
25,0,0,47,6,images/e13_1917-766.7.jpg,TRUE,2400
25,0,0,48,6,images/e07_1500-900.jpg,TRUE,2223
25,0,0,49,7,images/e07_1500-900.jpg,TRUE,3106
25,0,0,50,7,images/e09_1917-233.3.jpg,TRUE,2292
25,0,0,51,7,images/e13_1917-766.7.jpg,TRUE,2895
25,0,0,52,7,images/e07_1500-900.jpg,TRUE,2852
25,0,0,53,7,images/e41_3583-766.7.jpg,TRUE,2303
25,0,0,54,7,images/e49_4000-900.jpg,TRUE,2966
25,0,0,55,7,images/e13_1917-766.7.jpg,TRUE,2388
25,0,0,56,7,images/e01_1500-100.jpg,TRUE,1894
25,0,0,57,8,images/e49_4000-900.jpg,TRUE,2634
25,0,0,58,8,images/e09_1917-233.3.jpg,TRUE,2448
25,0,0,59,8,images/e41_3583-766.7.jpg,TRUE,2172
25,0,0,60,8,images/e07_1500-900.jpg,TRUE,2376
25,0,0,61,8,images/e13_1917-766.7.jpg,TRUE,2542
25,0,0,62,8,images/e07_1500-900.jpg,TRUE,2402
25,0,0,63,8,images/e13_1917-766.7.jpg,TRUE,2304
25,0,0,64,8,images/e01_1500-100.jpg,TRUE,2566
25,0,0,65,9,images/e13_1917-766.7.jpg,TRUE,2304
25,0,0,66,9,images/e49_4000-900.jpg,TRUE,2186
25,0,0,67,9,images/e01_1500-100.jpg,TRUE,2438
25,0,0,68,9,images/e07_1500-900.jpg,TRUE,2788
25,0,0,69,9,images/e07_1500-900.jpg,TRUE,1994
25,0,0,70,9,images/e09_1917-233.3.jpg,TRUE,2130
25,0,0,71,9,images/e13_1917-766.7.jpg,TRUE,3988
25,0,0,72,9,images/e41_3583-766.7.jpg,TRUE,1708
25,0,0,73,10,images/e07_1500-900.jpg,TRUE,2316
25,0,0,74,10,images/e07_1500-900.jpg,TRUE,1994
25,0,0,75,10,images/e09_1917-233.3.jpg,TRUE,1788
25,0,0,76,10,images/e49_4000-900.jpg,TRUE,1938
25,0,0,77,10,images/e13_1917-766.7.jpg,TRUE,2228
25,0,0,78,10,images/e41_3583-766.7.jpg,TRUE,2880
25,0,0,79,10,images/e13_1917-766.7.jpg,TRUE,2064
25,0,0,80,10,images/e01_1500-100.jpg,TRUE,1812
25,0,0,81,11,images/e09_1917-233.3.jpg,TRUE,2416
25,0,0,82,11,images/e49_4000-900.jpg,TRUE,2144
25,0,0,83,11,images/e41_3583-766.7.jpg,TRUE,1696
25,0,0,84,11,images/e01_1500-100.jpg,TRUE,2058
25,0,0,85,11,images/e13_1917-766.7.jpg,TRUE,3240
25,0,0,86,11,images/e07_1500-900.jpg,TRUE,2768
25,0,0,87,11,images/e13_1917-766.7.jpg,TRUE,2396
25,0,0,88,11,images/e07_1500-900.jpg,TRUE,2180
25,0,0,89,12,images/e13_1917-766.7.jpg,TRUE,2038
25,0,0,90,12,images/e49_4000-900.jpg,TRUE,2102
25,0,0,91,12,images/e41_3583-766.7.jpg,TRUE,3376
25,0,0,92,12,images/e09_1917-233.3.jpg,TRUE,1908
25,0,0,93,12,images/e01_1500-100.jpg,TRUE,1544
25,0,0,94,12,images/e07_1500-900.jpg,TRUE,1854
25,0,0,95,12,images/e07_1500-900.jpg,TRUE,2412
25,0,0,96,12,images/e13_1917-766.7.jpg,TRUE,2002
26,0,1,1,1,images/e07_1500-900.jpg,TRUE,6485
26,0,1,2,1,images/e41_3583-766.7.jpg,TRUE,14034
26,0,1,3,1,images/e49_4000-900.jpg,FALSE,7156
26,0,1,4,1,images/e13_1917-766.7.jpg,TRUE,2988
26,0,1,5,1,images/e41_3583-766.7.jpg,TRUE,3676
26,0,1,6,1,images/e07_1500-900.jpg,TRUE,2580
26,0,1,7,1,images/e13_1917-766.7.jpg,FALSE,8718
26,0,1,8,1,images/e49_4000-900.jpg,TRUE,2461
26,0,1,9,2,images/e13_1917-766.7.jpg,TRUE,2530
26,0,1,10,2,images/e49_4000-900.jpg,TRUE,2386
26,0,1,11,2,images/e41_3583-766.7.jpg,TRUE,2819
26,0,1,12,2,images/e07_1500-900.jpg,TRUE,2221
26,0,1,13,2,images/e13_1917-766.7.jpg,TRUE,2114
26,0,1,14,2,images/e49_4000-900.jpg,TRUE,2443
26,0,1,15,2,images/e07_1500-900.jpg,TRUE,2082
26,0,1,16,2,images/e41_3583-766.7.jpg,TRUE,2259
26,0,1,17,3,images/e07_1500-900.jpg,TRUE,2146
26,0,1,18,3,images/e49_4000-900.jpg,TRUE,2033
26,0,1,19,3,images/e41_3583-766.7.jpg,TRUE,2227
26,0,1,20,3,images/e01_1500-100.jpg,FALSE,6779
26,0,1,21,3,images/e13_1917-766.7.jpg,TRUE,3774
26,0,1,22,3,images/e09_1917-233.3.jpg,TRUE,2330
26,0,1,23,3,images/e13_1917-766.7.jpg,TRUE,3598
26,0,1,24,3,images/e07_1500-900.jpg,TRUE,1840
26,0,1,25,4,images/e01_1500-100.jpg,TRUE,2309
26,0,1,26,4,images/e13_1917-766.7.jpg,TRUE,2257
26,0,1,27,4,images/e07_1500-900.jpg,TRUE,1825
26,0,1,28,4,images/e13_1917-766.7.jpg,TRUE,1953
26,0,1,29,4,images/e09_1917-233.3.jpg,TRUE,2099
26,0,1,30,4,images/e41_3583-766.7.jpg,TRUE,1795
26,0,1,31,4,images/e49_4000-900.jpg,TRUE,2147
26,0,1,32,4,images/e07_1500-900.jpg,TRUE,2075
26,0,1,33,5,images/e13_1917-766.7.jpg,TRUE,3092
26,0,1,34,5,images/e07_1500-900.jpg,TRUE,2388
26,0,1,35,5,images/e41_3583-766.7.jpg,TRUE,2756
26,0,1,36,5,images/e13_1917-766.7.jpg,TRUE,2194
26,0,1,37,5,images/e01_1500-100.jpg,TRUE,2653
26,0,1,38,5,images/e09_1917-233.3.jpg,TRUE,2178
26,0,1,39,5,images/e07_1500-900.jpg,TRUE,2044
26,0,1,40,5,images/e49_4000-900.jpg,TRUE,2322
26,0,1,41,6,images/e13_1917-766.7.jpg,TRUE,2469
26,0,1,42,6,images/e13_1917-766.7.jpg,TRUE,3195
26,0,1,43,6,images/e07_1500-900.jpg,TRUE,1938
26,0,1,44,6,images/e07_1500-900.jpg,TRUE,2468
26,0,1,45,6,images/e09_1917-233.3.jpg,TRUE,2289
26,0,1,46,6,images/e01_1500-100.jpg,TRUE,5636
26,0,1,47,6,images/e41_3583-766.7.jpg,TRUE,2643
26,0,1,48,6,images/e49_4000-900.jpg,TRUE,2130
26,0,1,49,7,images/e09_1917-233.3.jpg,TRUE,1803
26,0,1,50,7,images/e41_3583-766.7.jpg,TRUE,2036
26,0,1,51,7,images/e49_4000-900.jpg,TRUE,2048
26,0,1,52,7,images/e01_1500-100.jpg,TRUE,2305
26,0,1,53,7,images/e07_1500-900.jpg,TRUE,2247
26,0,1,54,7,images/e13_1917-766.7.jpg,TRUE,1983
26,0,1,55,7,images/e13_1917-766.7.jpg,TRUE,2036
26,0,1,56,7,images/e07_1500-900.jpg,TRUE,1633
26,0,1,57,8,images/e13_1917-766.7.jpg,TRUE,2178
26,0,1,58,8,images/e49_4000-900.jpg,TRUE,2002
26,0,1,59,8,images/e01_1500-100.jpg,TRUE,2028
26,0,1,60,8,images/e07_1500-900.jpg,TRUE,3910
26,0,1,61,8,images/e41_3583-766.7.jpg,TRUE,2130
26,0,1,62,8,images/e07_1500-900.jpg,TRUE,2011
26,0,1,63,8,images/e09_1917-233.3.jpg,TRUE,2546
26,0,1,64,8,images/e13_1917-766.7.jpg,TRUE,3004
26,0,1,65,9,images/e13_1917-766.7.jpg,TRUE,1973
26,0,1,66,9,images/e07_1500-900.jpg,TRUE,1809
26,0,1,67,9,images/e09_1917-233.3.jpg,TRUE,1954
26,0,1,68,9,images/e01_1500-100.jpg,TRUE,1762
26,0,1,69,9,images/e41_3583-766.7.jpg,TRUE,2122
26,0,1,70,9,images/e13_1917-766.7.jpg,TRUE,1828
26,0,1,71,9,images/e07_1500-900.jpg,TRUE,1618
26,0,1,72,9,images/e49_4000-900.jpg,TRUE,2033
26,0,1,73,10,images/e07_1500-900.jpg,TRUE,1938
26,0,1,74,10,images/e13_1917-766.7.jpg,TRUE,1650
26,0,1,75,10,images/e01_1500-100.jpg,TRUE,1650
26,0,1,76,10,images/e09_1917-233.3.jpg,TRUE,1780
26,0,1,77,10,images/e13_1917-766.7.jpg,TRUE,2258
26,0,1,78,10,images/e49_4000-900.jpg,TRUE,2148
26,0,1,79,10,images/e41_3583-766.7.jpg,TRUE,1602
26,0,1,80,10,images/e07_1500-900.jpg,TRUE,1650
26,0,1,81,11,images/e13_1917-766.7.jpg,TRUE,1625
26,0,1,82,11,images/e07_1500-900.jpg,TRUE,1659
26,0,1,83,11,images/e09_1917-233.3.jpg,TRUE,1778
26,0,1,84,11,images/e49_4000-900.jpg,TRUE,1955
26,0,1,85,11,images/e13_1917-766.7.jpg,TRUE,2258
26,0,1,86,11,images/e01_1500-100.jpg,TRUE,1827
26,0,1,87,11,images/e41_3583-766.7.jpg,TRUE,3596
26,0,1,88,11,images/e07_1500-900.jpg,TRUE,1828
26,0,1,89,12,images/e13_1917-766.7.jpg,TRUE,1809
26,0,1,90,12,images/e07_1500-900.jpg,TRUE,1602
26,0,1,91,12,images/e49_4000-900.jpg,TRUE,1554
26,0,1,92,12,images/e09_1917-233.3.jpg,TRUE,2130
26,0,1,93,12,images/e01_1500-100.jpg,TRUE,1796
26,0,1,94,12,images/e13_1917-766.7.jpg,TRUE,2162
26,0,1,95,12,images/e07_1500-900.jpg,TRUE,1570
26,0,1,96,12,images/e41_3583-766.7.jpg,TRUE,1570
27,1,0,1,1,images/e13_1917-766.7.jpg,FALSE,11353
27,1,0,2,1,images/e07_1500-900.jpg,TRUE,3815
27,1,0,3,1,images/e09_1917-233.3.jpg,FALSE,6235
27,1,0,4,1,images/e01_1500-100.jpg,TRUE,4342
27,1,0,5,1,images/e49_4000-900.jpg,FALSE,5729
27,1,0,6,1,images/e07_1500-900.jpg,TRUE,3748
27,1,0,7,1,images/e41_3583-766.7.jpg,TRUE,2550
27,1,0,8,1,images/e13_1917-766.7.jpg,FALSE,3935
27,1,0,9,2,images/e49_4000-900.jpg,TRUE,2865
27,1,0,10,2,images/e41_3583-766.7.jpg,TRUE,2400
27,1,0,11,2,images/e13_1917-766.7.jpg,TRUE,2376
27,1,0,12,2,images/e09_1917-233.3.jpg,TRUE,2333
27,1,0,13,2,images/e07_1500-900.jpg,TRUE,2606
27,1,0,14,2,images/e01_1500-100.jpg,TRUE,2309
27,1,0,15,2,images/e07_1500-900.jpg,TRUE,2386
27,1,0,16,2,images/e13_1917-766.7.jpg,TRUE,3119
27,1,0,17,3,images/e13_1917-766.7.jpg,TRUE,2964
27,1,0,18,3,images/e09_1917-233.3.jpg,TRUE,2269
27,1,0,19,3,images/e49_4000-900.jpg,TRUE,2500
27,1,0,20,3,images/e07_1500-900.jpg,TRUE,2440
27,1,0,21,3,images/e41_3583-766.7.jpg,TRUE,2277
27,1,0,22,3,images/e13_1917-766.7.jpg,TRUE,3122
27,1,0,23,3,images/e07_1500-900.jpg,TRUE,2515
27,1,0,24,3,images/e01_1500-100.jpg,TRUE,2433
27,1,0,25,4,images/e09_1917-233.3.jpg,TRUE,2218
27,1,0,26,4,images/e49_4000-900.jpg,TRUE,2515
27,1,0,27,4,images/e01_1500-100.jpg,TRUE,2227
27,1,0,28,4,images/e13_1917-766.7.jpg,TRUE,3314
27,1,0,29,4,images/e13_1917-766.7.jpg,TRUE,2017
27,1,0,30,4,images/e07_1500-900.jpg,TRUE,2115
27,1,0,31,4,images/e41_3583-766.7.jpg,TRUE,2184
27,1,0,32,4,images/e07_1500-900.jpg,TRUE,2159
27,1,0,33,5,images/e07_1500-900.jpg,TRUE,2026
27,1,0,34,5,images/e09_1917-233.3.jpg,TRUE,2125
27,1,0,35,5,images/e13_1917-766.7.jpg,TRUE,3315
27,1,0,36,5,images/e07_1500-900.jpg,TRUE,1913
27,1,0,37,5,images/e01_1500-100.jpg,TRUE,1958
27,1,0,38,5,images/e13_1917-766.7.jpg,TRUE,2963
27,1,0,39,5,images/e41_3583-766.7.jpg,TRUE,1877
27,1,0,40,5,images/e49_4000-900.jpg,TRUE,1927
27,1,0,41,6,images/e49_4000-900.jpg,TRUE,1826
27,1,0,42,6,images/e07_1500-900.jpg,TRUE,2041
27,1,0,43,6,images/e13_1917-766.7.jpg,TRUE,1728
27,1,0,44,6,images/e09_1917-233.3.jpg,TRUE,1869
27,1,0,45,6,images/e01_1500-100.jpg,TRUE,1769
27,1,0,46,6,images/e13_1917-766.7.jpg,TRUE,1843
27,1,0,47,6,images/e07_1500-900.jpg,TRUE,1736
27,1,0,48,6,images/e41_3583-766.7.jpg,TRUE,1862
27,1,0,49,7,images/e01_1500-100.jpg,TRUE,2350
27,1,0,50,7,images/e07_1500-900.jpg,TRUE,2100
27,1,0,51,7,images/e13_1917-766.7.jpg,TRUE,1887
27,1,0,52,7,images/e07_1500-900.jpg,TRUE,1736
27,1,0,53,7,images/e13_1917-766.7.jpg,TRUE,1685
27,1,0,54,7,images/e41_3583-766.7.jpg,TRUE,1860
27,1,0,55,7,images/e09_1917-233.3.jpg,TRUE,1786
27,1,0,56,7,images/e49_4000-900.jpg,TRUE,1761
27,1,0,57,8,images/e49_4000-900.jpg,TRUE,1844
27,1,0,58,8,images/e07_1500-900.jpg,TRUE,3295
27,1,0,59,8,images/e01_1500-100.jpg,TRUE,2009
27,1,0,60,8,images/e09_1917-233.3.jpg,TRUE,1687
27,1,0,61,8,images/e41_3583-766.7.jpg,TRUE,1702
27,1,0,62,8,images/e13_1917-766.7.jpg,TRUE,1677
27,1,0,63,8,images/e07_1500-900.jpg,TRUE,2028
27,1,0,64,8,images/e13_1917-766.7.jpg,TRUE,1667
27,1,0,65,9,images/e09_1917-233.3.jpg,TRUE,1627
27,1,0,66,9,images/e41_3583-766.7.jpg,TRUE,1719
27,1,0,67,9,images/e13_1917-766.7.jpg,TRUE,1844
27,1,0,68,9,images/e13_1917-766.7.jpg,TRUE,1835
27,1,0,69,9,images/e07_1500-900.jpg,TRUE,1805
27,1,0,70,9,images/e49_4000-900.jpg,TRUE,2523
27,1,0,71,9,images/e01_1500-100.jpg,TRUE,2880
27,1,0,72,9,images/e07_1500-900.jpg,TRUE,2243
27,1,0,73,10,images/e07_1500-900.jpg,TRUE,2905
27,1,0,74,10,images/e09_1917-233.3.jpg,TRUE,2102
27,1,0,75,10,images/e41_3583-766.7.jpg,TRUE,2707
27,1,0,76,10,images/e13_1917-766.7.jpg,TRUE,2077
27,1,0,77,10,images/e01_1500-100.jpg,TRUE,2417
27,1,0,78,10,images/e07_1500-900.jpg,TRUE,85172
27,1,0,79,10,images/e13_1917-766.7.jpg,TRUE,2539
27,1,0,80,10,images/e49_4000-900.jpg,TRUE,3394
27,1,0,81,11,images/e49_4000-900.jpg,TRUE,2776
27,1,0,82,11,images/e01_1500-100.jpg,TRUE,3798
27,1,0,83,11,images/e13_1917-766.7.jpg,TRUE,4728
27,1,0,84,11,images/e07_1500-900.jpg,TRUE,2093
27,1,0,85,11,images/e09_1917-233.3.jpg,TRUE,2069
27,1,0,86,11,images/e07_1500-900.jpg,TRUE,1919
27,1,0,87,11,images/e13_1917-766.7.jpg,TRUE,1967
27,1,0,88,11,images/e41_3583-766.7.jpg,TRUE,2008
27,1,0,89,12,images/e13_1917-766.7.jpg,TRUE,1953
27,1,0,90,12,images/e01_1500-100.jpg,TRUE,1993
27,1,0,91,12,images/e49_4000-900.jpg,TRUE,1993
27,1,0,92,12,images/e41_3583-766.7.jpg,TRUE,2026
27,1,0,93,12,images/e07_1500-900.jpg,TRUE,1877
27,1,0,94,12,images/e13_1917-766.7.jpg,TRUE,3089
27,1,0,95,12,images/e09_1917-233.3.jpg,TRUE,2101
27,1,0,96,12,images/e07_1500-900.jpg,TRUE,1843
28,1,1,1,1,images/e41_3583-766.7.jpg,TRUE,3359
28,1,1,2,1,images/e49_4000-900.jpg,FALSE,6629
28,1,1,3,1,images/e13_1917-766.7.jpg,TRUE,4630
28,1,1,4,1,images/e07_1500-900.jpg,TRUE,2963
28,1,1,5,1,images/e41_3583-766.7.jpg,TRUE,2963
28,1,1,6,1,images/e13_1917-766.7.jpg,TRUE,3090
28,1,1,7,1,images/e49_4000-900.jpg,TRUE,2554
28,1,1,8,1,images/e07_1500-900.jpg,TRUE,2709
28,1,1,9,2,images/e41_3583-766.7.jpg,TRUE,2779
28,1,1,10,2,images/e13_1917-766.7.jpg,TRUE,2457
28,1,1,11,2,images/e49_4000-900.jpg,TRUE,2475
28,1,1,12,2,images/e07_1500-900.jpg,TRUE,2592
28,1,1,13,2,images/e07_1500-900.jpg,TRUE,3042
28,1,1,14,2,images/e49_4000-900.jpg,TRUE,2672
28,1,1,15,2,images/e13_1917-766.7.jpg,TRUE,3031
28,1,1,16,2,images/e41_3583-766.7.jpg,TRUE,3676
28,1,1,17,3,images/e09_1917-233.3.jpg,FALSE,4535
28,1,1,18,3,images/e13_1917-766.7.jpg,TRUE,3048
28,1,1,19,3,images/e07_1500-900.jpg,TRUE,3022
28,1,1,20,3,images/e01_1500-100.jpg,TRUE,3159
28,1,1,21,3,images/e41_3583-766.7.jpg,TRUE,3071
28,1,1,22,3,images/e07_1500-900.jpg,TRUE,3119
28,1,1,23,3,images/e49_4000-900.jpg,TRUE,4639
28,1,1,24,3,images/e13_1917-766.7.jpg,TRUE,2885
28,1,1,25,4,images/e07_1500-900.jpg,TRUE,2846
28,1,1,26,4,images/e01_1500-100.jpg,TRUE,2632
28,1,1,27,4,images/e41_3583-766.7.jpg,TRUE,2905
28,1,1,28,4,images/e09_1917-233.3.jpg,TRUE,2652
28,1,1,29,4,images/e13_1917-766.7.jpg,TRUE,2993
28,1,1,30,4,images/e49_4000-900.jpg,TRUE,2320
28,1,1,31,4,images/e07_1500-900.jpg,TRUE,2963
28,1,1,32,4,images/e13_1917-766.7.jpg,TRUE,2485
28,1,1,33,5,images/e13_1917-766.7.jpg,TRUE,2515
28,1,1,34,5,images/e49_4000-900.jpg,TRUE,3129
28,1,1,35,5,images/e09_1917-233.3.jpg,TRUE,3450
28,1,1,36,5,images/e01_1500-100.jpg,TRUE,2564
28,1,1,37,5,images/e41_3583-766.7.jpg,FALSE,3421
28,1,1,38,5,images/e07_1500-900.jpg,TRUE,2703
28,1,1,39,5,images/e13_1917-766.7.jpg,TRUE,2874
28,1,1,40,5,images/e07_1500-900.jpg,FALSE,3217
28,1,1,41,6,images/e13_1917-766.7.jpg,TRUE,2807
28,1,1,42,6,images/e07_1500-900.jpg,TRUE,2086
28,1,1,43,6,images/e07_1500-900.jpg,TRUE,3382
28,1,1,44,6,images/e49_4000-900.jpg,TRUE,2759
28,1,1,45,6,images/e13_1917-766.7.jpg,TRUE,2486
28,1,1,46,6,images/e41_3583-766.7.jpg,TRUE,2554
28,1,1,47,6,images/e01_1500-100.jpg,TRUE,2418
28,1,1,48,6,images/e09_1917-233.3.jpg,TRUE,2505
28,1,1,49,7,images/e41_3583-766.7.jpg,TRUE,3256
28,1,1,50,7,images/e13_1917-766.7.jpg,TRUE,2845
28,1,1,51,7,images/e01_1500-100.jpg,TRUE,2573
28,1,1,52,7,images/e13_1917-766.7.jpg,TRUE,3071
28,1,1,53,7,images/e09_1917-233.3.jpg,TRUE,2438
28,1,1,54,7,images/e07_1500-900.jpg,TRUE,3635
28,1,1,55,7,images/e49_4000-900.jpg,TRUE,2447
28,1,1,56,7,images/e07_1500-900.jpg,TRUE,4756
28,1,1,57,8,images/e41_3583-766.7.jpg,TRUE,2672
28,1,1,58,8,images/e07_1500-900.jpg,TRUE,2436
28,1,1,59,8,images/e13_1917-766.7.jpg,TRUE,2789
28,1,1,60,8,images/e09_1917-233.3.jpg,TRUE,2418
28,1,1,61,8,images/e49_4000-900.jpg,TRUE,2885
28,1,1,62,8,images/e01_1500-100.jpg,TRUE,2340
28,1,1,63,8,images/e07_1500-900.jpg,TRUE,2953
28,1,1,64,8,images/e13_1917-766.7.jpg,TRUE,2749
28,1,1,65,9,images/e07_1500-900.jpg,TRUE,2847
28,1,1,66,9,images/e13_1917-766.7.jpg,TRUE,2719
28,1,1,67,9,images/e49_4000-900.jpg,TRUE,2925
28,1,1,68,9,images/e41_3583-766.7.jpg,TRUE,2368
28,1,1,69,9,images/e07_1500-900.jpg,TRUE,2389
28,1,1,70,9,images/e13_1917-766.7.jpg,TRUE,2847
28,1,1,71,9,images/e09_1917-233.3.jpg,TRUE,2320
28,1,1,72,9,images/e01_1500-100.jpg,TRUE,2690
28,1,1,73,10,images/e01_1500-100.jpg,TRUE,2613
28,1,1,74,10,images/e13_1917-766.7.jpg,TRUE,2651
28,1,1,75,10,images/e13_1917-766.7.jpg,TRUE,2779
28,1,1,76,10,images/e07_1500-900.jpg,TRUE,2748
28,1,1,77,10,images/e49_4000-900.jpg,TRUE,2204
28,1,1,78,10,images/e07_1500-900.jpg,TRUE,3567
28,1,1,79,10,images/e09_1917-233.3.jpg,TRUE,2603
28,1,1,80,10,images/e41_3583-766.7.jpg,TRUE,2544
28,1,1,81,11,images/e07_1500-900.jpg,TRUE,2603
28,1,1,82,11,images/e07_1500-900.jpg,TRUE,1978
28,1,1,83,11,images/e13_1917-766.7.jpg,TRUE,2496
28,1,1,84,11,images/e09_1917-233.3.jpg,TRUE,2367
28,1,1,85,11,images/e01_1500-100.jpg,TRUE,2321
28,1,1,86,11,images/e13_1917-766.7.jpg,TRUE,2368
28,1,1,87,11,images/e41_3583-766.7.jpg,TRUE,2173
28,1,1,88,11,images/e49_4000-900.jpg,TRUE,2769
28,1,1,89,12,images/e13_1917-766.7.jpg,TRUE,2457
28,1,1,90,12,images/e41_3583-766.7.jpg,TRUE,2291
28,1,1,91,12,images/e01_1500-100.jpg,TRUE,2203
28,1,1,92,12,images/e09_1917-233.3.jpg,TRUE,2271
28,1,1,93,12,images/e49_4000-900.jpg,TRUE,2934
28,1,1,94,12,images/e13_1917-766.7.jpg,TRUE,2359
28,1,1,95,12,images/e07_1500-900.jpg,TRUE,2486
28,1,1,96,12,images/e07_1500-900.jpg,TRUE,2369
29,0,0,1,1,images/e13_1917-766.7.jpg,FALSE,5360
29,0,0,2,1,images/e49_4000-900.jpg,FALSE,13425
29,0,0,3,1,images/e13_1917-766.7.jpg,TRUE,5382
29,0,0,4,1,images/e07_1500-900.jpg,TRUE,4125
29,0,0,5,1,images/e01_1500-100.jpg,TRUE,8313
29,0,0,6,1,images/e09_1917-233.3.jpg,TRUE,3405
29,0,0,7,1,images/e07_1500-900.jpg,TRUE,1835
29,0,0,8,1,images/e41_3583-766.7.jpg,TRUE,1946
29,0,0,9,2,images/e01_1500-100.jpg,FALSE,1997
29,0,0,10,2,images/e41_3583-766.7.jpg,FALSE,2008
29,0,0,11,2,images/e09_1917-233.3.jpg,TRUE,1868
29,0,0,12,2,images/e07_1500-900.jpg,TRUE,1686
29,0,0,13,2,images/e13_1917-766.7.jpg,TRUE,3359
29,0,0,14,2,images/e49_4000-900.jpg,TRUE,1460
29,0,0,15,2,images/e07_1500-900.jpg,TRUE,1397
29,0,0,16,2,images/e13_1917-766.7.jpg,TRUE,4078
29,0,0,17,3,images/e01_1500-100.jpg,TRUE,2086
29,0,0,18,3,images/e07_1500-900.jpg,TRUE,1344
29,0,0,19,3,images/e07_1500-900.jpg,TRUE,1468
29,0,0,20,3,images/e13_1917-766.7.jpg,TRUE,1828
29,0,0,21,3,images/e41_3583-766.7.jpg,TRUE,1444
29,0,0,22,3,images/e09_1917-233.3.jpg,TRUE,2202
29,0,0,23,3,images/e13_1917-766.7.jpg,TRUE,1874
29,0,0,24,3,images/e49_4000-900.jpg,TRUE,4696
29,0,0,25,4,images/e49_4000-900.jpg,TRUE,1334
29,0,0,26,4,images/e13_1917-766.7.jpg,TRUE,1311
29,0,0,27,4,images/e13_1917-766.7.jpg,TRUE,1245
29,0,0,28,4,images/e07_1500-900.jpg,TRUE,1178
29,0,0,29,4,images/e09_1917-233.3.jpg,TRUE,1704
29,0,0,30,4,images/e41_3583-766.7.jpg,TRUE,1567
29,0,0,31,4,images/e07_1500-900.jpg,TRUE,1961
29,0,0,32,4,images/e01_1500-100.jpg,TRUE,1444
29,0,0,33,5,images/e01_1500-100.jpg,TRUE,1180
29,0,0,34,5,images/e07_1500-900.jpg,TRUE,1350
29,0,0,35,5,images/e49_4000-900.jpg,TRUE,1266
29,0,0,36,5,images/e09_1917-233.3.jpg,TRUE,1968
29,0,0,37,5,images/e13_1917-766.7.jpg,TRUE,1250
29,0,0,38,5,images/e41_3583-766.7.jpg,TRUE,1320
29,0,0,39,5,images/e13_1917-766.7.jpg,TRUE,2131
29,0,0,40,5,images/e07_1500-900.jpg,TRUE,1335
29,0,0,41,6,images/e49_4000-900.jpg,TRUE,1398
29,0,0,42,6,images/e07_1500-900.jpg,TRUE,1304
29,0,0,43,6,images/e01_1500-100.jpg,TRUE,1280
29,0,0,44,6,images/e13_1917-766.7.jpg,TRUE,1336
29,0,0,45,6,images/e07_1500-900.jpg,TRUE,1406
29,0,0,46,6,images/e41_3583-766.7.jpg,TRUE,1414
29,0,0,47,6,images/e09_1917-233.3.jpg,TRUE,1404
29,0,0,48,6,images/e13_1917-766.7.jpg,TRUE,1554
29,0,0,49,7,images/e07_1500-900.jpg,TRUE,1142
29,0,0,50,7,images/e07_1500-900.jpg,TRUE,1156
29,0,0,51,7,images/e01_1500-100.jpg,TRUE,1210
29,0,0,52,7,images/e09_1917-233.3.jpg,TRUE,1202
29,0,0,53,7,images/e49_4000-900.jpg,TRUE,1368
29,0,0,54,7,images/e13_1917-766.7.jpg,TRUE,1248
29,0,0,55,7,images/e13_1917-766.7.jpg,TRUE,978
29,0,0,56,7,images/e41_3583-766.7.jpg,TRUE,1248
29,0,0,57,8,images/e49_4000-900.jpg,TRUE,1320
29,0,0,58,8,images/e41_3583-766.7.jpg,TRUE,1290
29,0,0,59,8,images/e09_1917-233.3.jpg,TRUE,1350
29,0,0,60,8,images/e01_1500-100.jpg,TRUE,1210
29,0,0,61,8,images/e07_1500-900.jpg,TRUE,1618
29,0,0,62,8,images/e13_1917-766.7.jpg,TRUE,1320
29,0,0,63,8,images/e13_1917-766.7.jpg,TRUE,1170
29,0,0,64,8,images/e07_1500-900.jpg,TRUE,1196
29,0,0,65,9,images/e13_1917-766.7.jpg,TRUE,1022
29,0,0,66,9,images/e09_1917-233.3.jpg,TRUE,1220
29,0,0,67,9,images/e07_1500-900.jpg,TRUE,1202
29,0,0,68,9,images/e13_1917-766.7.jpg,TRUE,1116
29,0,0,69,9,images/e07_1500-900.jpg,TRUE,1226
29,0,0,70,9,images/e41_3583-766.7.jpg,TRUE,1352
29,0,0,71,9,images/e49_4000-900.jpg,TRUE,1420
29,0,0,72,9,images/e01_1500-100.jpg,TRUE,1454
29,0,0,73,10,images/e07_1500-900.jpg,TRUE,1444
29,0,0,74,10,images/e49_4000-900.jpg,TRUE,1218
29,0,0,75,10,images/e41_3583-766.7.jpg,TRUE,1086
29,0,0,76,10,images/e01_1500-100.jpg,TRUE,1210
29,0,0,77,10,images/e09_1917-233.3.jpg,TRUE,1328
29,0,0,78,10,images/e13_1917-766.7.jpg,TRUE,1186
29,0,0,79,10,images/e07_1500-900.jpg,TRUE,1680
29,0,0,80,10,images/e13_1917-766.7.jpg,TRUE,1180
29,0,0,81,11,images/e13_1917-766.7.jpg,TRUE,1062
29,0,0,82,11,images/e07_1500-900.jpg,TRUE,1092
29,0,0,83,11,images/e07_1500-900.jpg,TRUE,1064
29,0,0,84,11,images/e41_3583-766.7.jpg,TRUE,1366
29,0,0,85,11,images/e49_4000-900.jpg,TRUE,1202
29,0,0,86,11,images/e13_1917-766.7.jpg,TRUE,1288
29,0,0,87,11,images/e01_1500-100.jpg,TRUE,1150
29,0,0,88,11,images/e09_1917-233.3.jpg,TRUE,1038
29,0,0,89,12,images/e13_1917-766.7.jpg,TRUE,1250
29,0,0,90,12,images/e01_1500-100.jpg,TRUE,1070
29,0,0,91,12,images/e13_1917-766.7.jpg,TRUE,1140
29,0,0,92,12,images/e07_1500-900.jpg,TRUE,1210
29,0,0,93,12,images/e49_4000-900.jpg,TRUE,1140
29,0,0,94,12,images/e09_1917-233.3.jpg,TRUE,1422
29,0,0,95,12,images/e07_1500-900.jpg,TRUE,1094
29,0,0,96,12,images/e41_3583-766.7.jpg,TRUE,1202
30,0,1,1,1,images/e07_1500-900.jpg,FALSE,4130
30,0,1,2,1,images/e13_1917-766.7.jpg,FALSE,3170
30,0,1,3,1,images/e49_4000-900.jpg,TRUE,3538
30,0,1,4,1,images/e41_3583-766.7.jpg,TRUE,1610
30,0,1,5,1,images/e13_1917-766.7.jpg,TRUE,1798
30,0,1,6,1,images/e41_3583-766.7.jpg,TRUE,1783
30,0,1,7,1,images/e49_4000-900.jpg,FALSE,2568
30,0,1,8,1,images/e07_1500-900.jpg,FALSE,3603
30,0,1,9,2,images/e07_1500-900.jpg,TRUE,1902
30,0,1,10,2,images/e41_3583-766.7.jpg,TRUE,1632
30,0,1,11,2,images/e13_1917-766.7.jpg,TRUE,1614
30,0,1,12,2,images/e49_4000-900.jpg,TRUE,1788
30,0,1,13,2,images/e49_4000-900.jpg,TRUE,1860
30,0,1,14,2,images/e41_3583-766.7.jpg,TRUE,1464
30,0,1,15,2,images/e13_1917-766.7.jpg,TRUE,1355
30,0,1,16,2,images/e07_1500-900.jpg,TRUE,1376
30,0,1,17,3,images/e07_1500-900.jpg,TRUE,1674
30,0,1,18,3,images/e13_1917-766.7.jpg,TRUE,3214
30,0,1,19,3,images/e09_1917-233.3.jpg,FALSE,3774
30,0,1,20,3,images/e13_1917-766.7.jpg,TRUE,2654
30,0,1,21,3,images/e49_4000-900.jpg,TRUE,2931
30,0,1,22,3,images/e01_1500-100.jpg,TRUE,1844
30,0,1,23,3,images/e41_3583-766.7.jpg,TRUE,1772
30,0,1,24,3,images/e07_1500-900.jpg,FALSE,2180
30,0,1,25,4,images/e41_3583-766.7.jpg,TRUE,2856
30,0,1,26,4,images/e13_1917-766.7.jpg,TRUE,1947
30,0,1,27,4,images/e49_4000-900.jpg,TRUE,1812
30,0,1,28,4,images/e13_1917-766.7.jpg,TRUE,1924
30,0,1,29,4,images/e01_1500-100.jpg,TRUE,1740
30,0,1,30,4,images/e09_1917-233.3.jpg,TRUE,2223
30,0,1,31,4,images/e07_1500-900.jpg,TRUE,2088
30,0,1,32,4,images/e07_1500-900.jpg,TRUE,1475
30,0,1,33,5,images/e13_1917-766.7.jpg,TRUE,2072
30,0,1,34,5,images/e07_1500-900.jpg,TRUE,1890
30,0,1,35,5,images/e07_1500-900.jpg,TRUE,3003
30,0,1,36,5,images/e49_4000-900.jpg,TRUE,1439
30,0,1,37,5,images/e41_3583-766.7.jpg,TRUE,1331
30,0,1,38,5,images/e13_1917-766.7.jpg,TRUE,2053
30,0,1,39,5,images/e01_1500-100.jpg,TRUE,2400
30,0,1,40,5,images/e09_1917-233.3.jpg,TRUE,1959
30,0,1,41,6,images/e13_1917-766.7.jpg,TRUE,1705
30,0,1,42,6,images/e49_4000-900.jpg,TRUE,1580
30,0,1,43,6,images/e07_1500-900.jpg,TRUE,1699
30,0,1,44,6,images/e13_1917-766.7.jpg,TRUE,1714
30,0,1,45,6,images/e41_3583-766.7.jpg,TRUE,1756
30,0,1,46,6,images/e09_1917-233.3.jpg,TRUE,1766
30,0,1,47,6,images/e01_1500-100.jpg,TRUE,1765
30,0,1,48,6,images/e07_1500-900.jpg,TRUE,1569
30,0,1,49,7,images/e49_4000-900.jpg,TRUE,1696
30,0,1,50,7,images/e13_1917-766.7.jpg,TRUE,1869
30,0,1,51,7,images/e01_1500-100.jpg,TRUE,2306
30,0,1,52,7,images/e07_1500-900.jpg,TRUE,1598
30,0,1,53,7,images/e13_1917-766.7.jpg,TRUE,6779
30,0,1,54,7,images/e09_1917-233.3.jpg,TRUE,1456
30,0,1,55,7,images/e07_1500-900.jpg,TRUE,1644
30,0,1,56,7,images/e41_3583-766.7.jpg,TRUE,2981
30,0,1,57,8,images/e01_1500-100.jpg,TRUE,1921
30,0,1,58,8,images/e09_1917-233.3.jpg,TRUE,1578
30,0,1,59,8,images/e07_1500-900.jpg,TRUE,1254
30,0,1,60,8,images/e13_1917-766.7.jpg,TRUE,1696
30,0,1,61,8,images/e49_4000-900.jpg,TRUE,1779
30,0,1,62,8,images/e13_1917-766.7.jpg,TRUE,1857
30,0,1,63,8,images/e41_3583-766.7.jpg,TRUE,1207
30,0,1,64,8,images/e07_1500-900.jpg,TRUE,1155
30,0,1,65,9,images/e13_1917-766.7.jpg,TRUE,1380
30,0,1,66,9,images/e07_1500-900.jpg,TRUE,1244
30,0,1,67,9,images/e13_1917-766.7.jpg,TRUE,1292
30,0,1,68,9,images/e09_1917-233.3.jpg,TRUE,1636
30,0,1,69,9,images/e41_3583-766.7.jpg,TRUE,2031
30,0,1,70,9,images/e49_4000-900.jpg,TRUE,1320
30,0,1,71,9,images/e07_1500-900.jpg,TRUE,1262
30,0,1,72,9,images/e01_1500-100.jpg,TRUE,1452
30,0,1,73,10,images/e13_1917-766.7.jpg,TRUE,1252
30,0,1,74,10,images/e13_1917-766.7.jpg,TRUE,1238
30,0,1,75,10,images/e41_3583-766.7.jpg,TRUE,1378
30,0,1,76,10,images/e07_1500-900.jpg,TRUE,1292
30,0,1,77,10,images/e07_1500-900.jpg,TRUE,1272
30,0,1,78,10,images/e49_4000-900.jpg,TRUE,1384
30,0,1,79,10,images/e01_1500-100.jpg,TRUE,1724
30,0,1,80,10,images/e09_1917-233.3.jpg,TRUE,1722
30,0,1,81,11,images/e41_3583-766.7.jpg,TRUE,1561
30,0,1,82,11,images/e13_1917-766.7.jpg,TRUE,1990
30,0,1,83,11,images/e09_1917-233.3.jpg,TRUE,1424
30,0,1,84,11,images/e13_1917-766.7.jpg,TRUE,1859
30,0,1,85,11,images/e07_1500-900.jpg,TRUE,1699
30,0,1,86,11,images/e49_4000-900.jpg,TRUE,2006
30,0,1,87,11,images/e07_1500-900.jpg,TRUE,1579
30,0,1,88,11,images/e01_1500-100.jpg,TRUE,1388
30,0,1,89,12,images/e07_1500-900.jpg,TRUE,1780
30,0,1,90,12,images/e01_1500-100.jpg,TRUE,1359
30,0,1,91,12,images/e09_1917-233.3.jpg,TRUE,2272
30,0,1,92,12,images/e13_1917-766.7.jpg,TRUE,1446
30,0,1,93,12,images/e07_1500-900.jpg,TRUE,1462
30,0,1,94,12,images/e13_1917-766.7.jpg,TRUE,1156
30,0,1,95,12,images/e41_3583-766.7.jpg,TRUE,1346
30,0,1,96,12,images/e49_4000-900.jpg,TRUE,2214
